timestamp,accx,accy,accz
01:16:47.826,1.999,1.874,0.727
01:16:47.922,0.109,0.127,0.984
01:16:48.118,0.12,0.136,0.984
01:16:48.313,0.111,0.141,0.978
01:16:48.508,0.125,0.142,0.978
01:16:48.704,0.098,0.133,0.995
01:16:48.898,0.12,0.125,0.985
01:16:49.094,0.116,0.137,0.992
01:16:49.288,0.125,0.134,0.995
01:16:49.481,0.109,0.128,0.995
01:16:49.676,0.112,0.13,0.98
01:16:49.872,0.123,0.125,0.99
01:16:50.116,0.11,0.129,0.995
01:16:50.311,0.115,0.119,0.996
01:16:50.506,0.122,0.137,0.986
01:16:50.701,0.131,0.139,0.987
01:16:50.897,0.122,0.141,0.987
01:16:51.092,0.118,0.129,0.988
01:16:51.285,0.102,0.123,0.983
01:16:51.481,0.116,0.13,0.982
01:16:51.675,0.113,0.126,0.982
01:16:51.872,0.12,0.126,0.987
01:16:52.068,0.105,0.115,0.984
01:16:52.262,0.113,0.133,0.976
01:16:52.458,0.109,0.135,0.978
01:16:52.652,0.111,0.125,0.99
01:16:52.848,0.121,0.124,0.991
01:16:53.042,0.115,0.126,0.992
01:16:53.236,0.117,0.14,0.978
01:16:53.431,0.124,0.143,0.98
01:16:53.625,0.115,0.119,0.981
01:16:53.822,0.117,0.125,0.974
01:16:54.016,0.118,0.134,0.973
01:16:54.213,0.117,0.142,1.004
01:16:54.456,0.113,0.137,0.993
01:16:54.650,0.116,0.127,0.996
01:16:54.844,0.121,0.123,0.971
01:16:55.039,0.108,0.137,0.988
01:16:55.234,0.119,0.126,0.996
01:16:55.429,0.117,0.129,0.985
01:16:55.624,0.105,0.127,0.985
01:16:55.822,0.128,0.135,0.983
01:16:56.015,0.121,0.123,0.983
01:16:56.210,0.113,0.128,0.986
01:16:56.406,0.103,0.135,0.978
01:16:56.600,0.114,0.138,0.989
01:16:56.796,0.114,0.129,0.984
01:16:56.990,0.116,0.124,0.983
01:16:57.185,0.13,0.131,0.996
01:16:57.380,0.12,0.143,0.987
01:16:57.576,0.114,0.131,0.981
01:16:57.770,0.132,0.126,0.987
01:16:57.966,0.093,0.128,0.993
01:16:58.161,0.114,0.124,0.985
01:16:58.356,0.104,0.131,0.992
01:16:58.551,0.116,0.128,0.996
01:16:58.745,0.105,0.126,0.985
01:16:58.989,0.128,0.127,0.981
01:16:59.183,0.101,0.125,0.999
01:16:59.379,0.117,0.143,0.984
01:16:59.574,0.126,0.126,0.981
01:16:59.770,0.124,0.133,0.991
01:16:59.965,0.122,0.119,0.988
01:17:00.160,0.107,0.123,0.984
01:17:00.354,0.116,0.142,0.992
01:17:00.550,0.113,0.131,0.995
01:17:00.744,0.114,0.127,1.0
01:17:00.941,0.128,0.122,0.98
01:17:01.135,0.12,0.123,0.976
01:17:01.331,0.117,0.124,0.994
01:17:01.526,0.12,0.131,0.979
01:17:01.722,0.106,0.135,0.991
01:17:01.917,0.117,0.116,0.982
01:17:02.111,0.11,0.128,0.986
01:17:02.305,0.111,0.134,0.982
01:17:02.501,0.116,0.128,0.983
01:17:02.696,0.108,0.13,0.992
01:17:02.889,0.115,0.126,1.0
01:17:03.084,0.117,0.121,0.987
01:17:03.329,0.119,0.133,0.99
01:17:03.524,0.104,0.134,0.991
01:17:03.718,0.115,0.132,0.992
01:17:03.912,0.124,0.116,0.991
01:17:04.109,0.124,0.136,0.983
01:17:04.304,0.112,0.125,0.987
01:17:04.498,0.125,0.131,0.993
01:17:04.693,0.115,0.14,0.982
01:17:04.888,0.114,0.121,0.998
01:17:05.083,0.118,0.131,0.991
01:17:05.278,0.11,0.136,0.985
01:17:05.473,0.122,0.124,0.991
01:17:05.668,0.119,0.116,0.998
01:17:05.863,0.132,0.127,0.981
01:17:06.058,0.113,0.131,0.992
01:17:06.254,0.112,0.135,0.987
01:17:06.448,0.109,0.134,1.002
01:17:06.643,0.115,0.136,0.998
01:17:06.839,0.12,0.116,0.992
01:17:07.034,0.111,0.124,0.992
01:17:07.229,0.119,0.135,0.983
01:17:07.424,0.118,0.142,0.986
01:17:07.667,0.127,0.127,0.989
01:17:07.862,0.116,0.131,0.989
01:17:08.057,0.132,0.117,0.98
01:17:08.252,0.124,0.131,0.995
01:17:08.446,0.121,0.126,0.986
01:17:08.642,0.111,0.127,0.987
01:17:08.837,0.11,0.122,0.987
01:17:09.033,0.106,0.127,0.985
01:17:09.228,0.126,0.122,0.988
01:17:09.423,0.113,0.12,0.994
01:17:09.618,0.11,0.127,0.983
01:17:09.813,0.116,0.125,0.991
01:17:10.009,0.114,0.134,0.974
01:17:10.203,0.13,0.122,0.988
01:17:10.400,0.121,0.121,0.985
01:17:10.593,0.119,0.124,0.984
01:17:10.788,0.117,0.121,0.989
01:17:10.983,0.123,0.125,0.988
01:17:11.177,0.12,0.123,0.988
01:17:11.373,0.116,0.131,0.99
01:17:11.568,0.114,0.129,0.973
01:17:11.764,0.118,0.126,0.996
01:17:12.008,0.11,0.136,0.985
01:17:12.201,0.126,0.125,0.981
01:17:12.396,0.118,0.135,0.989
01:17:12.593,0.121,0.131,1.003
01:17:12.785,0.109,0.132,0.989
01:17:12.981,0.117,0.133,0.983
01:17:13.176,0.109,0.118,0.998
01:17:13.370,0.11,0.13,0.982
01:17:13.565,0.117,0.122,0.983
01:17:13.761,0.124,0.133,0.987
01:17:13.956,0.106,0.129,0.987
01:17:14.151,0.132,0.124,0.98
01:17:14.345,0.109,0.127,0.984
01:17:14.540,0.108,0.119,0.995
01:17:14.736,0.127,0.121,0.996
01:17:14.931,0.117,0.128,0.987
01:17:15.127,0.124,0.127,0.992
01:17:15.321,0.117,0.119,0.997
01:17:15.515,0.131,0.131,0.987
01:17:15.711,0.108,0.126,0.992
01:17:15.906,0.124,0.118,0.982
01:17:16.102,0.109,0.129,0.994
01:17:16.345,0.117,0.125,0.976
01:17:16.539,0.126,0.126,0.994
01:17:16.735,0.122,0.127,0.979
01:17:16.930,0.107,0.122,0.995
01:17:17.125,0.119,0.128,0.994
01:17:17.319,0.12,0.115,0.994
01:17:17.513,0.105,0.133,0.992
01:17:17.708,0.118,0.129,0.973
01:17:17.904,0.115,0.133,0.982
01:17:18.099,0.11,0.132,0.993
01:17:18.294,0.122,0.132,0.991
01:17:18.490,0.113,0.129,0.982
01:17:18.685,0.112,0.126,0.988
01:17:18.879,0.108,0.145,0.997
01:17:19.073,0.126,0.123,0.981
01:17:19.270,0.106,0.126,0.988
01:17:19.464,0.132,0.129,0.985
01:17:19.660,0.124,0.119,0.985
01:17:19.854,0.119,0.134,0.98
01:17:20.049,0.122,0.141,0.996
01:17:20.244,0.109,0.137,0.996
01:17:20.440,0.114,0.123,0.996
01:17:20.683,0.118,0.135,0.979
01:17:20.879,0.115,0.134,0.986
01:17:21.073,0.117,0.126,0.984
01:17:21.269,0.119,0.133,0.995
01:17:21.463,0.124,0.137,0.991
01:17:21.658,0.115,0.137,0.988
01:17:21.853,0.117,0.111,0.985
01:17:22.048,0.113,0.127,0.993
01:17:22.243,0.105,0.12,0.995
01:17:22.438,0.111,0.132,1.003
01:17:22.633,0.117,0.134,0.994
01:17:22.828,0.12,0.13,0.986
01:17:23.023,0.119,0.121,0.998
01:17:23.218,0.117,0.147,0.996
01:17:23.413,0.114,0.128,0.987
01:17:23.607,0.105,0.123,0.988
01:17:23.803,0.121,0.128,0.982
01:17:23.997,0.117,0.135,0.987
01:17:24.193,0.124,0.134,0.994
01:17:24.387,0.114,0.128,0.98
01:17:24.582,0.118,0.131,0.983
01:17:24.778,0.126,0.128,0.993
01:17:24.973,0.113,0.127,0.984
01:17:25.217,0.116,0.129,1.002
01:17:25.413,0.13,0.125,0.996
01:17:25.607,0.122,0.129,0.993
01:17:25.801,0.123,0.142,0.987
01:17:25.997,0.111,0.128,0.981
01:17:26.191,0.112,0.128,0.988
01:17:26.386,0.11,0.12,0.988
01:17:26.581,0.127,0.132,0.991
01:17:26.776,0.118,0.127,0.982
01:17:26.971,0.117,0.122,0.985
01:17:27.166,0.123,0.126,0.991
01:17:27.361,0.106,0.127,0.984
01:17:27.556,0.127,0.126,0.998
01:17:27.751,0.129,0.126,0.982
01:17:27.946,0.128,0.125,0.984
01:17:28.145,0.112,0.119,0.987
01:17:28.340,0.11,0.123,0.986
01:17:28.534,0.119,0.125,0.998
01:17:28.731,0.105,0.113,0.991
01:17:28.924,0.114,0.13,0.983
01:17:29.117,0.105,0.137,0.984
01:17:29.314,0.112,0.136,0.984
01:17:29.558,0.119,0.128,0.995
01:17:29.750,0.113,0.134,0.993
01:17:29.945,0.117,0.122,0.993
01:17:30.143,0.129,0.115,0.988
01:17:30.335,0.12,0.13,0.984
01:17:30.530,0.118,0.129,0.983
01:17:30.725,0.113,0.129,0.984
01:17:30.920,0.108,0.128,0.989
01:17:31.115,0.113,0.127,0.991
01:17:31.310,0.111,0.128,0.992
01:17:31.505,0.123,0.129,0.986
01:17:31.700,0.123,0.136,0.989
01:17:31.895,0.11,0.119,0.981
01:17:32.090,0.122,0.113,0.996
01:17:32.285,0.113,0.135,0.993
01:17:32.481,0.12,0.13,1.004
01:17:32.675,0.114,0.126,0.988
01:17:32.870,0.137,0.134,0.971
01:17:33.066,0.111,0.139,0.993
01:17:33.270,0.118,0.121,0.985
01:17:33.455,0.122,0.121,0.994
01:17:33.650,0.121,0.135,0.991
01:17:33.896,0.117,0.12,0.988
01:17:34.089,0.113,0.127,0.999
01:17:34.283,0.129,0.114,0.975
01:17:34.479,0.111,0.122,0.994
01:17:34.673,0.118,0.114,0.977
01:17:34.874,0.129,0.123,0.995
01:17:35.064,0.12,0.128,1.004
01:17:35.261,0.125,0.125,0.973
01:17:35.453,0.124,0.116,0.999
01:17:35.648,0.108,0.13,0.979
01:17:35.844,0.119,0.125,0.979
01:17:36.038,0.116,0.13,0.978
01:17:36.233,0.11,0.12,0.984
01:17:36.429,0.112,0.125,0.99
01:17:36.624,0.126,0.115,0.992
01:17:36.819,0.124,0.132,0.985
01:17:37.014,0.106,0.126,0.994
01:17:37.208,0.11,0.119,0.99
01:17:37.403,0.11,0.129,0.991
01:17:37.598,0.12,0.126,0.982
01:17:37.794,0.124,0.122,0.983
01:17:37.990,0.114,0.125,0.996
01:17:38.232,0.089,0.137,1.004
01:17:38.428,0.122,0.131,0.989
01:17:38.626,0.108,0.128,0.979
01:17:38.818,0.122,0.121,0.983
01:17:39.012,0.128,0.141,0.994
01:17:39.207,0.119,0.119,0.986
01:17:39.402,0.119,0.128,0.975
01:17:39.597,0.12,0.132,0.993
01:17:39.792,0.114,0.116,0.975
01:17:39.987,0.115,0.114,0.982
01:17:40.182,0.118,0.136,0.979
01:17:40.378,0.115,0.129,0.985
01:17:40.573,0.126,0.126,0.986
01:17:40.768,0.112,0.136,0.989
01:17:40.963,0.129,0.136,0.985
01:17:41.158,0.115,0.145,0.961
01:17:41.353,0.109,0.131,0.98
01:17:41.547,0.111,0.127,1.004
01:17:41.742,0.12,0.132,0.974
01:17:41.937,0.123,0.128,0.981
01:17:42.134,0.119,0.122,0.988
01:17:42.329,0.11,0.126,0.995
01:17:42.573,0.121,0.137,0.998
01:17:42.768,0.113,0.126,0.995
01:17:42.964,0.14,0.123,1.003
01:17:43.160,0.105,0.142,0.995
01:17:43.353,0.104,0.124,0.998
01:17:43.550,0.113,0.12,0.98
01:17:43.744,0.117,0.125,0.965
01:17:43.940,0.129,0.123,0.995
01:17:44.134,0.119,0.116,0.994
01:17:44.329,0.142,0.128,0.994
01:17:44.524,0.149,0.1,0.998
01:17:44.717,0.136,0.086,0.995
01:17:44.913,0.151,0.094,0.987
01:17:45.109,0.16,0.09,0.991
01:17:45.303,0.174,0.11,0.982
01:17:45.498,0.166,0.101,0.996
01:17:45.693,0.166,0.091,0.98
01:17:45.889,0.17,0.096,0.984
01:17:46.084,0.156,0.09,0.993
01:17:46.277,0.171,0.098,0.979
01:17:46.474,0.149,0.078,0.989
01:17:46.666,0.165,0.083,0.966
01:17:46.861,0.155,0.072,1.002
01:17:47.105,0.154,0.082,0.988
01:17:47.300,0.155,0.09,0.99
01:17:47.497,0.155,0.084,0.999
01:17:47.691,0.161,0.084,0.992
01:17:47.891,0.154,0.088,0.988
01:17:48.084,0.155,0.078,0.993
01:17:48.275,0.137,0.077,0.994
01:17:48.470,0.145,0.075,0.989
01:17:48.667,0.151,0.071,1.004
01:17:48.860,0.14,0.073,0.983
01:17:49.055,0.148,0.077,1.004
01:17:49.250,0.145,0.081,0.99
01:17:49.445,0.154,0.066,0.984
01:17:49.640,0.145,0.088,0.99
01:17:49.835,0.142,0.082,0.988
01:17:50.031,0.157,0.08,0.991
01:17:50.227,0.149,0.067,0.989
01:17:50.422,0.146,0.065,0.994
01:17:50.621,0.156,0.081,0.997
01:17:50.813,0.153,0.071,0.994
01:17:51.007,0.16,0.075,0.992
01:17:51.204,0.158,0.08,0.987
01:17:51.446,0.148,0.067,0.991
01:17:51.641,0.146,0.076,0.992
01:17:51.836,0.153,0.082,0.986
01:17:52.032,0.143,0.081,0.998
01:17:52.227,0.154,0.068,1.0
01:17:52.421,0.146,0.076,0.992
01:17:52.617,0.155,0.065,0.983
01:17:52.810,0.156,0.075,0.99
01:17:53.007,0.157,0.085,0.995
01:17:53.201,0.155,0.072,0.998
01:17:53.397,0.136,0.081,0.989
01:17:53.591,0.161,0.073,0.981
01:17:53.784,0.152,0.073,0.985
01:17:53.979,0.149,0.079,1.007
01:17:54.174,0.148,0.065,0.988
01:17:54.369,0.151,0.072,0.993
01:17:54.568,0.163,0.081,1.003
01:17:54.761,0.149,0.073,0.984
01:17:54.954,0.151,0.068,1.0
01:17:55.149,0.145,0.075,0.981
01:17:55.344,0.145,0.072,0.99
01:17:55.539,0.147,0.081,0.988
01:17:55.784,0.153,0.065,0.988
01:17:55.981,0.145,0.079,0.997
01:17:56.174,0.16,0.078,0.981
01:17:56.368,0.138,0.072,0.984
01:17:56.563,0.157,0.071,0.992
01:17:56.757,0.154,0.091,0.981
01:17:56.952,0.149,0.088,0.987
01:17:57.150,0.147,0.068,0.987
01:17:57.343,0.143,0.076,0.992
01:17:57.538,0.136,0.084,0.998
01:17:57.736,0.16,0.077,0.986
01:17:57.929,0.148,0.079,0.985
01:17:58.123,0.154,0.078,0.987
01:17:58.318,0.151,0.079,0.995
01:17:58.514,0.148,0.077,0.991
01:17:58.708,0.15,0.07,0.986
01:17:58.903,0.146,0.077,1.003
01:17:59.100,0.153,0.068,1.0
01:17:59.295,0.149,0.066,0.997
01:17:59.491,0.161,0.071,0.991
01:17:59.686,0.151,0.067,0.992
01:17:59.879,0.159,0.075,0.997
01:18:00.124,0.148,0.079,0.994
01:18:00.320,0.164,0.072,0.99
01:18:00.515,0.155,0.079,0.995
01:18:00.708,0.156,0.087,0.99
01:18:00.905,0.155,0.07,1.001
01:18:01.100,0.143,0.078,0.978
01:18:01.294,0.136,0.07,0.983
01:18:01.490,0.156,0.076,0.979
01:18:01.683,0.159,0.08,0.988
01:18:01.879,0.146,0.084,0.988
01:18:02.076,0.142,0.063,0.989
01:18:02.269,0.157,0.075,0.985
01:18:02.463,0.146,0.08,0.998
01:18:02.659,0.145,0.08,0.982
01:18:02.855,0.143,0.084,0.998
01:18:03.049,0.159,0.07,0.989
01:18:03.245,0.139,0.073,0.983
01:18:03.439,0.139,0.07,0.988
01:18:03.633,0.146,0.072,0.993
01:18:03.830,0.153,0.073,0.995
01:18:04.024,0.151,0.073,0.986
01:18:04.217,0.154,0.073,0.992
01:18:04.461,0.149,0.075,0.987
01:18:04.656,0.154,0.075,0.98
01:18:04.851,0.149,0.071,0.983
01:18:05.045,0.148,0.069,1.0
01:18:05.240,0.148,0.074,0.988
01:18:05.435,0.133,0.072,0.999
01:18:05.630,0.154,0.074,0.979
01:18:05.825,0.16,0.08,0.991
01:18:06.020,0.152,0.068,0.982
01:18:06.216,0.158,0.07,0.978
01:18:06.410,0.147,0.069,0.984
01:18:06.605,0.144,0.066,0.983
01:18:06.800,0.158,0.077,0.979
01:18:06.995,0.146,0.072,0.971
01:18:07.192,0.15,0.076,0.985
01:18:07.385,0.169,0.083,0.991
01:18:07.582,0.147,0.071,0.982
01:18:07.778,0.155,0.086,0.987
01:18:07.974,0.15,0.074,0.979
01:18:08.167,0.154,0.067,0.997
01:18:08.364,0.154,0.078,0.992
01:18:08.559,0.16,0.064,0.99
01:18:08.801,0.153,0.075,0.987
01:18:09.002,0.15,0.084,0.986
01:18:09.190,0.156,0.081,1.0
01:18:09.387,0.137,0.085,0.994
01:18:09.582,0.15,0.077,0.995
01:18:09.777,0.142,0.068,0.982
01:18:09.973,0.153,0.069,0.994
01:18:10.167,0.163,0.074,0.985
01:18:10.362,0.152,0.082,0.988
01:18:10.557,0.151,0.079,0.991
01:18:10.750,0.139,0.076,0.994
01:18:10.944,0.161,0.069,0.999
01:18:11.142,0.145,0.075,1.0
01:18:11.337,0.144,0.097,0.983
01:18:11.532,0.153,0.068,0.995
01:18:11.726,0.158,0.065,0.997
01:18:11.923,0.153,0.076,0.995
01:18:12.115,0.158,0.076,1.0
01:18:12.309,0.151,0.082,1.0
01:18:12.505,0.139,0.077,0.981
01:18:12.699,0.162,0.08,0.99
01:18:12.895,0.17,0.081,0.992
01:18:13.089,0.149,0.079,1.003
01:18:13.333,0.149,0.067,0.991
01:18:13.531,0.146,0.076,0.99
01:18:13.725,0.156,0.072,0.996
01:18:13.922,0.145,0.08,0.993
01:18:14.115,0.163,0.071,0.987
01:18:14.311,0.157,0.076,0.986
01:18:14.505,0.148,0.068,0.973
01:18:14.700,0.141,0.081,0.991
01:18:14.897,0.141,0.08,0.996
01:18:15.090,0.145,0.074,0.981
01:18:15.286,0.141,0.088,0.987
01:18:15.482,0.146,0.09,1.006
01:18:15.676,0.147,0.073,0.984
01:18:15.871,0.144,0.069,0.986
01:18:16.065,0.135,0.071,0.997
01:18:16.261,0.155,0.077,1.001
01:18:16.453,0.139,0.079,0.988
01:18:16.651,0.143,0.07,0.991
01:18:16.847,0.148,0.083,0.993
01:18:17.039,0.141,0.078,0.987
01:18:17.237,0.15,0.066,0.986
01:18:17.432,0.145,0.067,0.987
01:18:17.674,0.146,0.072,0.999
01:18:17.870,0.16,0.088,0.981
01:18:18.066,0.146,0.076,0.99
01:18:18.261,0.166,0.071,0.986
01:18:18.455,0.163,0.071,0.986
01:18:18.648,0.16,0.077,0.993
01:18:18.845,0.145,0.079,0.981
01:18:19.040,0.159,0.087,0.978
01:18:19.235,0.14,0.08,0.99
01:18:19.430,0.147,0.073,0.988
01:18:19.625,0.154,0.081,0.983
01:18:19.819,0.141,0.08,0.983
01:18:20.016,0.147,0.072,0.993
01:18:20.209,0.152,0.085,0.991
01:18:20.406,0.141,0.078,0.99
01:18:20.599,0.15,0.066,0.983
01:18:20.796,0.152,0.069,0.997
01:18:20.990,0.162,0.075,0.996
01:18:21.184,0.149,0.062,0.99
01:18:21.380,0.153,0.081,0.993
01:18:21.575,0.149,0.074,0.989
01:18:21.770,0.146,0.079,0.992
01:18:22.013,0.152,0.081,1.0
01:18:22.208,0.149,0.068,0.992
01:18:22.404,0.15,0.071,0.985
01:18:22.599,0.137,0.066,0.988
01:18:22.793,0.146,0.073,0.989
01:18:22.989,0.146,0.066,0.983
01:18:23.181,0.144,0.064,0.981
01:18:23.376,0.148,0.08,0.994
01:18:23.571,0.15,0.09,0.995
01:18:23.765,0.158,0.085,0.982
01:18:23.961,0.156,0.075,0.985
01:18:24.156,0.195,0.061,0.983
01:18:24.351,0.157,0.068,0.981
01:18:24.546,0.151,0.077,0.993
01:18:24.741,0.149,0.077,0.98
01:18:24.936,0.162,0.079,0.982
01:18:25.132,0.153,0.064,0.977
01:18:25.327,0.147,0.077,0.982
01:18:25.521,0.145,0.08,0.968
01:18:25.717,0.149,0.083,0.996
01:18:25.913,0.149,0.071,0.987
01:18:26.106,0.156,0.069,0.989
01:18:26.351,0.147,0.079,1.006
01:18:26.547,0.14,0.069,0.982
01:18:26.742,0.148,0.051,0.996
01:18:26.938,0.148,0.067,0.981
01:18:27.131,0.15,0.075,0.974
01:18:27.327,0.161,0.075,0.986
01:18:27.523,0.146,0.086,0.987
01:18:27.718,0.155,0.07,0.99
01:18:27.912,0.156,0.077,0.983
01:18:28.108,0.157,0.071,0.994
01:18:28.300,0.145,0.089,0.972
01:18:28.495,0.151,0.077,0.994
01:18:28.690,0.153,0.078,0.993
01:18:28.884,0.159,0.076,0.996
01:18:29.080,0.144,0.109,0.972
01:18:29.275,0.155,0.084,0.996
01:18:29.469,0.143,0.075,0.989
01:18:29.664,0.144,0.074,1.002
01:18:29.860,0.159,0.083,0.995
01:18:30.056,0.159,0.071,0.989
01:18:30.251,0.14,0.07,0.993
01:18:30.445,0.152,0.078,0.992
01:18:30.688,0.145,0.071,0.994
01:18:30.883,0.15,0.076,0.998
01:18:31.079,0.153,0.075,0.986
01:18:31.273,0.15,0.082,0.99
01:18:31.469,0.144,0.079,1.0
01:18:31.664,0.145,0.072,0.987
01:18:31.859,0.153,0.082,0.972
01:18:32.053,0.139,0.067,0.99
01:18:32.249,0.162,0.067,0.979
01:18:32.445,0.14,0.072,0.994
01:18:32.640,0.15,0.063,0.979
01:18:32.835,0.142,0.086,0.979
01:18:33.031,0.15,0.072,0.987
01:18:33.223,0.147,0.069,0.992
01:18:33.419,0.155,0.089,0.996
01:18:33.613,0.149,0.074,0.991
01:18:33.808,0.138,0.073,0.988
01:18:34.004,0.139,0.075,0.986
01:18:34.198,0.154,0.074,0.993
01:18:34.394,0.133,0.08,0.986
01:18:34.589,0.151,0.074,0.996
01:18:34.784,0.145,0.074,0.986
01:18:35.031,0.147,0.074,0.984
01:18:35.225,0.142,0.068,0.987
01:18:35.420,0.149,0.08,0.971
01:18:35.614,0.147,0.075,0.988
01:18:35.810,0.16,0.075,0.989
01:18:36.006,0.158,0.079,0.989
01:18:36.200,0.152,0.057,1.007
01:18:36.395,0.17,0.05,0.997
01:18:36.591,0.166,0.037,0.975
01:18:36.785,0.155,0.036,0.992
01:18:36.979,0.172,0.034,0.973
01:18:37.175,0.165,0.051,0.981
01:18:37.370,0.172,0.034,0.995
01:18:37.566,0.154,0.037,0.994
01:18:37.761,0.164,0.049,0.997
01:18:37.956,0.15,0.054,0.989
01:18:38.151,0.152,0.041,0.989
01:18:38.342,0.154,0.06,0.985
01:18:38.537,0.162,0.053,0.985
01:18:38.732,0.212,0.022,0.927
01:18:38.927,0.152,0.043,0.984
01:18:39.122,0.147,0.05,0.986
01:18:39.317,0.154,0.039,0.995
01:18:39.561,0.157,0.048,1.001
01:18:39.756,0.146,0.052,0.991
01:18:39.951,0.16,0.041,0.991
01:18:40.146,0.151,0.036,0.995
01:18:40.342,0.149,0.034,0.998
01:18:40.536,0.155,0.051,0.993
01:18:40.731,0.145,0.05,0.985
01:18:40.926,0.158,0.05,0.996
01:18:41.121,0.147,0.04,1.006
01:18:41.316,0.15,0.04,0.997
01:18:41.512,0.151,0.051,0.996
01:18:41.706,0.152,0.032,0.986
01:18:41.901,0.148,0.049,0.993
01:18:42.096,0.159,0.047,0.99
01:18:42.292,0.151,0.045,0.988
01:18:42.486,0.165,0.051,0.991
01:18:42.682,0.147,0.047,0.99
01:18:42.876,0.148,0.043,0.992
01:18:43.072,0.156,0.054,0.985
01:18:43.270,0.151,0.046,0.995
01:18:43.463,0.155,0.054,1.015
01:18:43.658,0.14,0.04,0.985
01:18:43.900,0.145,0.041,0.991
01:18:44.095,0.158,0.045,0.984
01:18:44.290,0.143,0.052,0.998
01:18:44.485,0.151,0.04,0.992
01:18:44.683,0.16,0.042,0.983
01:18:44.875,0.148,0.05,0.996
01:18:45.072,0.147,0.044,0.992
01:18:45.267,0.164,0.041,0.99
01:18:45.463,0.158,0.044,0.985
01:18:45.657,0.152,0.048,0.985
01:18:45.853,0.158,0.042,0.997
01:18:46.047,0.158,0.056,0.991
01:18:46.240,0.153,0.044,0.978
01:18:46.435,0.142,0.04,0.99
01:18:46.630,0.141,0.037,0.991
01:18:46.825,0.144,0.038,0.994
01:18:47.021,0.158,0.051,0.978
01:18:47.215,0.15,0.058,0.99
01:18:47.410,0.145,0.041,0.992
01:18:47.605,0.16,0.041,0.995
01:18:47.800,0.151,0.049,0.99
01:18:47.995,0.168,0.039,0.988
01:18:48.239,0.148,0.05,1.007
01:18:48.434,0.155,0.046,0.991
01:18:48.629,0.158,0.057,0.99
01:18:48.824,0.149,0.046,0.986
01:18:49.020,0.155,0.03,0.994
01:18:49.213,0.164,0.031,0.984
01:18:49.409,0.185,0.027,0.977
01:18:49.604,0.142,0.042,0.991
01:18:49.798,0.139,0.072,0.995
01:18:49.993,0.158,0.052,0.995
01:18:50.189,0.145,0.053,0.988
01:18:50.386,0.167,0.028,0.988
01:18:50.578,0.143,0.042,0.99
01:18:50.774,0.149,0.047,1.011
01:18:50.969,0.138,0.047,0.986
01:18:51.165,0.151,0.05,0.992
01:18:51.360,0.154,0.039,0.988
01:18:51.555,0.148,0.04,0.983
01:18:51.751,0.153,0.048,0.992
01:18:51.944,0.147,0.054,0.99
01:18:52.140,0.152,0.049,0.996
01:18:52.335,0.155,0.034,0.991
01:18:52.587,0.15,0.048,0.992
01:18:52.772,0.148,0.04,0.981
01:18:52.967,0.15,0.058,0.996
01:18:53.163,0.163,0.039,0.998
01:18:53.358,0.162,0.045,0.984
01:18:53.553,0.142,0.043,0.99
01:18:53.747,0.154,0.045,0.99
01:18:53.942,0.156,0.038,0.992
01:18:54.137,0.164,0.046,1.0
01:18:54.333,0.152,0.041,0.989
01:18:54.529,0.155,0.049,0.991
01:18:54.723,0.157,0.045,0.984
01:18:54.918,0.141,0.057,1.003
01:18:55.112,0.149,0.05,0.991
01:18:55.308,0.154,0.054,0.993
01:18:55.502,0.148,0.051,1.005
01:18:55.697,0.163,0.035,0.983
01:18:55.892,0.148,0.051,0.987
01:18:56.088,0.166,0.044,0.996
01:18:56.282,0.157,0.047,0.988
01:18:56.478,0.156,0.045,0.995
01:18:56.672,0.149,0.052,0.989
01:18:56.916,0.152,0.057,0.987
01:18:57.112,0.154,0.054,0.991
01:18:57.306,0.167,0.047,0.992
01:18:57.501,0.15,0.04,0.999
01:18:57.697,0.153,0.049,0.978
01:18:57.893,0.159,0.042,0.992
01:18:58.088,0.149,0.042,0.999
01:18:58.283,0.145,0.038,1.001
01:18:58.478,0.15,0.06,0.993
01:18:58.673,0.143,0.041,0.993
01:18:58.870,0.152,0.036,1.001
01:18:59.063,0.161,0.062,0.994
01:18:59.258,0.156,0.05,0.993
01:18:59.453,0.155,0.045,1.0
01:18:59.648,0.148,0.047,0.994
01:18:59.842,0.159,0.053,0.987
01:19:00.037,0.164,0.047,0.991
01:19:00.232,0.15,0.046,1.001
01:19:00.428,0.157,0.044,0.989
01:19:00.623,0.145,0.048,0.991
01:19:00.818,0.156,0.051,0.998
01:19:01.013,0.16,0.04,0.985
01:19:01.256,0.148,0.044,0.999
01:19:01.451,0.15,0.049,0.993
01:19:01.645,0.152,0.04,0.994
01:19:01.840,0.158,0.048,1.0
01:19:02.036,0.163,0.053,0.992
01:19:02.231,0.15,0.046,0.99
01:19:02.427,0.163,0.037,0.982
01:19:02.621,0.152,0.041,1.0
01:19:02.817,0.143,0.044,0.991
01:19:03.012,0.153,0.055,0.984
01:19:03.206,0.149,0.052,0.99
01:19:03.401,0.152,0.045,0.992
01:19:03.596,0.158,0.055,0.995
01:19:03.793,0.148,0.047,0.989
01:19:03.987,0.163,0.042,0.997
01:19:04.183,0.153,0.049,0.996
01:19:04.378,0.158,0.047,0.993
01:19:04.573,0.153,0.058,0.977
01:19:04.768,0.157,0.052,0.992
01:19:04.963,0.145,0.053,0.975
01:19:05.157,0.164,0.047,0.999
01:19:05.353,0.166,0.042,0.984
01:19:05.548,0.153,0.043,0.997
01:19:05.792,0.159,0.048,0.998
01:19:05.986,0.155,0.045,0.994
01:19:06.182,0.154,0.043,0.98
01:19:06.375,0.162,0.038,0.989
01:19:06.570,0.155,0.047,0.992
01:19:06.765,0.155,0.044,0.993
01:19:06.962,0.162,0.046,0.997
01:19:07.154,0.158,0.047,1.006
01:19:07.350,0.158,0.046,0.99
01:19:07.544,0.162,0.052,1.001
01:19:07.740,0.15,0.046,0.989
01:19:07.934,0.152,0.041,0.991
01:19:08.130,0.163,0.043,0.99
01:19:08.324,0.156,0.041,0.992
01:19:08.519,0.156,0.037,0.995
01:19:08.716,0.15,0.04,0.983
01:19:08.908,0.168,0.052,0.986
01:19:09.104,0.146,0.044,0.984
01:19:09.299,0.149,0.047,0.987
01:19:09.494,0.153,0.055,0.99
01:19:09.689,0.162,0.042,1.003
01:19:09.884,0.151,0.044,0.998
01:19:10.128,0.167,0.042,0.982
01:19:10.323,0.157,0.048,0.987
01:19:10.518,0.155,0.036,0.98
01:19:10.713,0.146,0.025,0.992
01:19:10.908,0.156,0.052,0.979
01:19:11.104,0.149,0.043,0.984
01:19:11.299,0.163,0.053,0.997
01:19:11.494,0.16,0.036,0.989
01:19:11.689,0.146,0.056,0.993
01:19:11.884,0.145,0.048,1.003
01:19:12.079,0.166,0.042,0.989
01:19:12.274,0.153,0.045,0.99
01:19:12.468,0.154,0.045,1.009
01:19:12.664,0.158,0.056,0.999
01:19:12.858,0.155,0.046,1.005
01:19:13.055,0.138,0.048,0.996
01:19:13.250,0.147,0.037,1.0
01:19:13.443,0.154,0.052,1.0
01:19:13.640,0.173,0.038,0.992
01:19:13.835,0.156,0.044,0.991
01:19:14.030,0.151,0.033,0.988
01:19:14.225,0.156,0.041,0.993
01:19:14.471,0.154,0.051,0.991
01:19:14.662,0.162,0.045,0.99
01:19:14.859,0.148,0.041,1.001
01:19:15.054,0.145,0.047,0.987
01:19:15.248,0.143,0.04,0.993
01:19:15.444,0.162,0.04,0.997
01:19:15.638,0.165,0.038,0.979
01:19:15.833,0.143,0.043,0.996
01:19:16.028,0.159,0.045,0.99
01:19:16.224,0.16,0.051,1.001
01:19:16.419,0.149,0.055,0.985
01:19:16.613,0.149,0.041,1.0
01:19:16.807,0.156,0.045,0.987
01:19:17.002,0.151,0.043,0.994
01:19:17.197,0.159,0.051,0.997
01:19:17.393,0.157,0.059,0.985
01:19:17.588,0.15,0.05,0.979
01:19:17.783,0.153,0.046,0.987
01:19:17.978,0.155,0.046,1.002
01:19:18.173,0.153,0.043,1.001
01:19:18.368,0.158,0.043,1.002
01:19:18.562,0.146,0.049,0.995
01:19:18.807,0.147,0.046,0.987
01:19:19.000,0.161,0.052,0.982
01:19:19.195,0.175,0.035,1.01
01:19:19.391,0.161,0.047,0.996
01:19:19.585,0.145,0.048,0.992
01:19:19.781,0.16,0.048,1.0
01:19:19.976,0.137,0.048,0.988
01:19:20.171,0.168,0.051,0.997
01:19:20.366,0.157,0.052,0.987
01:19:20.561,0.155,0.046,0.991
01:19:20.757,0.156,0.053,0.996
01:19:20.952,0.146,0.048,0.982
01:19:21.147,0.148,0.043,0.981
01:19:21.342,0.139,0.047,0.993
01:19:21.537,0.145,0.05,0.99
01:19:21.734,0.146,0.044,1.006
01:19:21.928,0.16,0.045,1.006
01:19:22.123,0.158,0.04,0.995
01:19:22.317,0.148,0.052,0.991
01:19:22.511,0.15,0.042,1.001
01:19:22.707,0.148,0.032,0.992
01:19:22.902,0.14,0.042,0.985
01:19:23.148,0.158,0.014,1.002
01:19:23.341,0.15,0.033,0.987
01:19:23.535,0.133,0.027,0.992
01:19:23.730,0.156,0.034,0.981
01:19:23.925,0.147,0.043,0.992
01:19:24.121,0.15,0.034,0.991
01:19:24.315,0.159,0.046,1.007
01:19:24.511,0.139,0.031,0.999
01:19:24.706,0.145,0.027,0.992
01:19:24.902,0.161,0.034,0.98
01:19:25.095,0.149,0.04,0.985
01:19:25.290,0.15,0.041,0.99
01:19:25.485,0.156,0.028,0.995
01:19:25.680,0.152,0.024,0.996
01:19:25.875,0.155,0.029,0.997
01:19:26.072,0.15,0.033,0.993
01:19:26.265,0.153,0.022,0.996
01:19:26.460,0.144,0.029,0.993
01:19:26.655,0.151,0.036,0.994
01:19:26.852,0.163,0.035,0.991
01:19:27.046,0.157,0.041,0.987
01:19:27.241,0.159,0.025,0.983
01:19:27.486,0.165,0.039,0.996
01:19:27.679,0.147,0.044,0.992
01:19:27.874,0.16,0.036,0.994
01:19:28.068,0.151,0.033,1.003
01:19:28.265,0.156,0.039,1.005
01:19:28.459,0.151,0.047,0.994
01:19:28.654,0.153,0.021,0.997
01:19:28.849,0.153,0.044,1.0
01:19:29.044,0.145,0.038,0.987
01:19:29.239,0.159,0.04,0.986
01:19:29.435,0.155,0.047,0.986
01:19:29.629,0.17,0.033,0.986
01:19:29.824,0.152,0.035,0.985
01:19:30.019,0.151,0.04,0.985
01:19:30.215,0.145,0.045,0.994
01:19:30.409,0.151,0.022,0.995
01:19:30.605,0.163,0.034,0.99
01:19:30.800,0.161,0.042,0.989
01:19:30.995,0.149,0.046,0.991
01:19:31.190,0.145,0.026,0.996
01:19:31.384,0.144,0.025,0.986
01:19:31.581,0.155,0.033,0.985
01:19:31.776,0.155,0.031,0.993
01:19:32.019,0.171,0.037,0.993
01:19:32.215,0.156,0.027,0.984
01:19:32.410,0.145,0.033,0.981
01:19:32.603,0.167,0.047,1.001
01:19:32.798,0.156,0.037,0.996
01:19:32.994,0.147,0.037,0.995
01:19:33.190,0.157,0.043,0.995
01:19:33.383,0.152,0.043,0.995
01:19:33.579,0.153,0.031,0.991
01:19:33.773,0.156,0.044,0.999
01:19:33.968,0.162,0.033,1.0
01:19:34.165,0.157,0.029,0.992
01:19:34.360,0.144,0.027,0.984
01:19:34.555,0.179,0.037,1.003
01:19:34.749,0.147,0.044,0.993
01:19:34.944,0.162,0.019,0.992
01:19:35.138,0.159,0.032,0.992
01:19:35.333,0.156,0.03,0.999
01:19:35.528,0.157,0.031,0.991
01:19:35.723,0.165,0.041,0.988
01:19:35.918,0.154,0.021,0.991
01:19:36.113,0.151,0.031,1.001
01:19:36.358,0.154,0.042,0.995
01:19:36.551,0.159,0.033,0.992
01:19:36.747,0.147,0.036,0.991
01:19:36.943,0.16,0.04,0.996
01:19:37.136,0.165,0.025,0.987
01:19:37.332,0.16,0.035,0.994
01:19:37.527,0.16,0.03,0.996
01:19:37.722,0.149,0.041,0.988
01:19:37.917,0.157,0.027,0.999
01:19:38.112,0.163,0.031,0.993
01:19:38.308,0.157,0.041,0.991
01:19:38.503,0.161,0.036,0.99
01:19:38.697,0.153,0.044,0.984
01:19:38.892,0.164,0.037,0.996
01:19:39.088,0.146,0.033,0.995
01:19:39.283,0.155,0.032,0.993
01:19:39.479,0.149,0.022,0.988
01:19:39.673,0.159,0.035,0.992
01:19:39.868,0.16,0.023,0.991
01:19:40.063,0.158,0.034,0.999
01:19:40.258,0.146,0.034,0.994
01:19:40.453,0.166,0.036,0.986
01:19:40.695,0.159,0.034,1.0
01:19:40.891,0.153,0.039,0.999
01:19:41.086,0.145,0.039,0.988
01:19:41.282,0.148,0.044,0.998
01:19:41.477,0.164,0.027,0.994
01:19:41.672,0.156,0.02,0.979
01:19:41.866,0.16,0.017,0.983
01:19:42.063,0.166,0.032,0.996
01:19:42.257,0.151,0.035,1.001
01:19:42.452,0.157,0.04,0.993
01:19:42.646,0.155,0.036,0.988
01:19:42.842,0.149,0.037,0.991
01:19:43.037,0.164,0.037,0.994
01:19:43.230,0.148,0.029,1.0
01:19:43.428,0.147,0.048,0.992
01:19:43.621,0.149,0.04,0.997
01:19:43.816,0.151,0.04,0.989
01:19:44.011,0.151,0.039,1.001
01:19:44.206,0.152,0.032,0.993
01:19:44.400,0.142,0.028,0.997
01:19:44.596,0.154,0.038,0.998
01:19:44.791,0.151,0.034,0.998
01:19:45.035,0.151,0.043,1.0
01:19:45.228,0.145,0.039,0.98
01:19:45.424,0.158,0.034,0.995
01:19:45.620,0.164,0.033,0.991
01:19:45.814,0.155,0.045,0.996
01:19:46.009,0.163,0.032,0.994
01:19:46.205,0.149,0.046,0.993
01:19:46.400,0.144,0.025,0.986
01:19:46.594,0.164,0.019,0.991
01:19:46.789,0.159,0.024,0.995
01:19:46.985,0.158,0.034,0.996
01:19:47.180,0.152,0.029,0.993
01:19:47.375,0.161,0.039,0.999
01:19:47.570,0.151,0.041,0.993
01:19:47.765,0.157,0.043,0.995
01:19:47.960,0.155,0.036,0.991
01:19:48.155,0.154,0.035,0.994
01:19:48.350,0.154,0.024,0.989
01:19:48.545,0.158,0.024,0.994
01:19:48.739,0.146,0.041,1.002
01:19:48.937,0.162,0.044,0.995
01:19:49.133,0.162,0.03,1.001
01:19:49.372,0.157,0.038,0.991
01:19:49.567,0.155,0.042,0.993
01:19:49.763,0.163,0.038,0.991
01:19:49.961,0.158,0.035,0.993
01:19:50.153,0.163,0.049,0.989
01:19:50.348,0.157,0.036,0.995
01:19:50.543,0.171,0.005,1.008
01:19:50.742,0.218,0.005,0.957
01:19:50.935,0.139,0.006,0.987
01:19:51.130,0.179,0.0,1.006
01:19:51.324,0.15,-0.014,0.997
01:19:51.518,0.15,-0.02,0.987
01:19:51.713,0.159,-0.014,0.992
01:19:51.908,0.153,-0.022,0.969
01:19:52.106,0.173,-0.016,0.985
01:19:52.297,0.156,-0.012,1.002
01:19:52.494,0.147,-0.01,1.0
01:19:52.688,0.088,-0.051,1.017
01:19:52.883,0.014,-0.114,0.985
01:19:53.078,0.066,-0.046,1.116
01:19:53.274,0.102,-0.049,1.001
01:19:53.469,0.26,0.017,1.165
01:19:53.665,0.048,0.43,1.009
01:19:53.908,0.096,0.443,0.844
01:19:54.102,-0.154,0.875,0.207
01:19:54.297,-0.076,0.912,0.327
01:19:54.492,-0.055,0.961,0.371
01:19:54.688,-0.095,0.918,0.348
01:19:54.883,-0.073,0.896,0.31
01:19:55.078,-0.2,0.9,0.285
01:19:55.272,0.012,1.112,0.466
01:19:55.468,-0.092,0.783,0.258
01:19:55.662,-0.037,0.939,0.464
01:19:55.857,0.059,1.075,0.603
01:19:56.052,-0.032,0.739,0.407
01:19:56.247,0.098,0.895,0.447
01:19:56.442,0.127,0.839,0.471
01:19:56.637,0.176,0.856,0.455
01:19:56.832,0.091,0.805,0.541
01:19:57.027,-0.007,0.697,0.649
01:19:57.222,-0.206,0.601,0.724
01:19:57.417,-0.372,0.179,0.812
01:19:57.613,-0.248,0.352,0.924
01:19:57.867,-0.092,0.464,0.9
01:19:58.003,0.002,0.5,0.823
01:19:58.246,0.427,0.594,0.812
01:19:58.441,0.297,0.667,0.611
01:19:58.636,0.266,0.703,0.638
01:19:58.831,0.236,0.669,0.704
01:19:59.025,-0.016,0.275,0.86
01:19:59.221,0.556,0.768,0.522
01:19:59.416,0.238,0.645,0.742
01:19:59.611,0.292,0.662,0.666
01:19:59.808,0.306,0.69,0.652
01:20:00.001,0.273,0.673,0.662
01:20:00.197,0.322,0.659,0.658
01:20:00.392,0.302,0.656,0.664
01:20:00.587,0.31,0.681,0.658
01:20:00.783,0.305,0.661,0.669
01:20:00.977,0.323,0.681,0.653
01:20:01.171,0.3,0.682,0.669
01:20:01.368,0.245,0.68,0.684
01:20:01.562,0.152,0.702,0.685
01:20:01.755,0.194,0.692,0.708
01:20:01.951,0.287,0.626,0.714
01:20:02.147,0.293,0.6,0.709
01:20:02.341,0.347,0.663,0.676
01:20:02.587,0.312,0.648,0.676
01:20:02.781,0.29,0.655,0.714
01:20:02.976,0.257,0.655,0.69
01:20:03.170,0.25,0.656,0.711
01:20:03.366,0.262,0.656,0.685
01:20:03.560,0.232,0.634,0.687
01:20:03.755,0.282,0.633,0.718
01:20:03.950,0.296,0.605,0.723
01:20:04.145,0.31,0.607,0.746
01:20:04.339,0.291,0.575,0.729
01:20:04.536,0.304,0.59,0.731
01:20:04.730,0.301,0.587,0.752
01:20:04.926,0.308,0.591,0.745
01:20:05.122,0.309,0.599,0.732
01:20:05.316,0.304,0.592,0.737
01:20:05.511,0.303,0.615,0.739
01:20:05.705,0.283,0.604,0.754
01:20:05.899,0.3,0.615,0.716
01:20:06.095,0.294,0.628,0.698
01:20:06.289,0.273,0.653,0.69
01:20:06.487,0.259,0.717,0.635
01:20:06.679,0.244,0.729,0.602
01:20:06.924,0.235,0.695,0.663
01:20:07.118,0.25,0.7,0.675
01:20:07.316,0.213,0.654,0.719
01:20:07.508,0.147,0.58,1.003
01:20:07.704,-0.039,0.4,0.937
01:20:07.898,-0.405,0.283,0.594
01:20:08.093,-0.664,0.046,0.967
01:20:08.288,-0.448,0.116,0.879
01:20:08.484,-0.502,0.035,0.894
01:20:08.679,-0.458,0.064,0.882
01:20:08.872,-0.535,0.016,0.843
01:20:09.069,-0.469,0.015,0.89
01:20:09.264,-0.472,0.02,0.884
01:20:09.458,-0.457,0.036,0.894
01:20:09.653,-0.454,0.049,0.889
01:20:09.847,-0.462,0.011,0.886
01:20:10.044,-0.454,0.032,0.885
01:20:10.239,-0.46,0.017,0.887
01:20:10.436,-0.467,0.018,0.889
01:20:10.629,-0.461,0.028,0.898
01:20:10.824,-0.462,0.03,0.895
01:20:11.020,-0.46,0.028,0.903
01:20:11.265,-0.459,0.025,0.872
01:20:11.460,-0.458,0.024,0.881
01:20:11.670,-0.456,0.017,0.888
01:20:11.848,-0.459,0.029,0.884
01:20:12.044,-0.448,0.032,0.886
01:20:12.238,-0.455,0.024,0.894
01:20:12.433,-0.458,0.02,0.887
01:20:12.628,-0.443,0.039,0.898
01:20:12.822,-0.437,0.026,0.901
01:20:13.018,-0.422,0.04,0.917
01:20:13.214,-0.499,0.026,0.887
01:20:13.409,-0.384,0.098,0.876
01:20:13.604,-0.218,0.142,0.991
01:20:13.798,-0.354,0.174,0.864
01:20:13.994,-0.14,0.173,1.061
01:20:14.188,-0.166,0.262,1.019
01:20:14.383,-0.062,0.347,0.85
01:20:14.578,0.511,0.216,0.972
01:20:14.823,0.024,0.354,0.837
01:20:14.967,0.879,0.514,0.454
01:20:15.163,0.28,0.622,-0.812
01:20:15.358,0.097,0.512,-0.685
01:20:15.602,0.003,0.621,-0.783
01:20:15.797,-0.214,0.483,-0.729
01:20:15.992,0.157,0.275,-0.909
01:20:16.202,0.038,0.223,-1.005
01:20:16.382,0.134,-0.074,-0.958
01:20:16.576,-0.362,0.445,-0.883
01:20:16.771,-0.443,0.278,-1.343
01:20:16.966,0.214,0.424,-0.954
01:20:17.161,-0.264,0.223,-0.821
01:20:17.356,-0.352,0.232,-1.163
01:20:17.551,-0.076,0.377,-0.742
01:20:17.746,0.165,0.361,-1.067
01:20:17.941,0.097,-0.19,-1.034
01:20:18.136,0.299,0.045,-1.01
01:20:18.332,0.482,0.464,-0.682
01:20:18.527,0.414,0.594,-0.705
01:20:18.722,0.467,0.518,-0.695
01:20:18.923,0.469,0.491,-0.712
01:20:19.112,0.409,0.378,-0.806
01:20:19.306,0.17,0.353,-0.86
01:20:19.501,-0.072,0.334,-1.105
01:20:19.697,-0.116,0.24,-0.895
10:38:41.723,1.999,0.644,1.617
10:38:41.811,-0.027,-0.241,0.83
10:38:42.007,0.403,-0.154,0.961
10:38:42.202,0.012,-0.19,1.071
10:38:42.397,0.172,-0.459,1.049
10:38:42.592,0.37,-0.136,1.006
10:38:42.787,0.27,-0.195,1.048
10:38:42.983,0.208,-0.057,1.001
10:38:43.177,0.048,0.11,0.845
10:38:43.373,0.095,-0.019,0.975
10:38:43.567,0.104,-0.02,0.996
10:38:43.763,0.097,0.0,0.952
10:38:44.007,0.125,0.018,0.963
10:38:44.201,0.101,0.0,0.971
10:38:44.396,-0.208,-0.054,0.975
10:38:44.591,-0.455,-0.078,0.855
10:38:44.786,-0.773,-0.182,0.579
10:38:44.981,-0.884,-0.16,0.33
10:38:45.176,-0.944,-0.265,-0.197
10:38:45.371,-0.799,-0.174,-0.535
10:38:45.566,-0.505,0.021,-0.761
10:38:45.761,-0.025,0.209,-0.963
10:38:45.955,0.151,0.32,-0.916
10:38:46.151,0.11,0.295,-0.93
10:38:46.346,-0.006,0.305,-0.942
10:38:46.541,-0.025,0.276,-0.886
10:38:46.737,-0.045,0.201,-1.034
10:38:46.932,-0.16,0.432,-1.01
10:38:47.126,-0.207,0.487,-0.693
10:38:47.322,-0.217,0.573,-0.794
10:38:47.516,-0.304,0.627,-0.746
10:38:47.711,-0.702,0.742,-0.488
10:38:47.906,-0.3,0.722,0.219
10:38:48.101,-0.403,0.764,0.411
10:38:48.345,-0.487,-0.205,0.285
10:38:48.539,-0.478,-0.375,-0.323
10:38:48.734,-0.741,-0.503,-0.55
10:38:48.929,-0.481,-0.809,-0.424
10:38:49.124,-0.589,-0.739,-0.48
10:38:49.319,-0.458,-0.718,-0.612
10:38:49.515,-1.049,-0.686,-0.3
10:38:49.710,0.289,-0.369,0.607
10:38:49.906,0.604,-0.251,0.844
10:38:50.099,0.285,-0.02,0.909
10:38:50.294,0.094,-0.05,1.014
10:38:50.490,0.024,-0.038,1.012
10:38:50.686,0.235,0.046,0.869
10:38:50.880,0.762,-0.281,0.484
10:38:51.075,0.932,-0.687,0.073
10:38:51.270,0.728,-0.595,0.026
10:38:51.465,0.861,-0.409,-0.308
10:38:51.659,0.841,-0.472,-0.198
10:38:51.854,0.826,-0.456,-0.396
10:38:52.050,0.881,-0.441,-0.208
10:38:52.245,1.042,-0.334,0.179
10:38:52.440,0.823,-0.109,0.228
10:38:52.684,0.691,-0.247,0.616
10:38:52.879,0.01,-0.183,0.921
10:38:53.074,-0.085,-0.229,0.931
10:38:53.269,0.07,-0.318,0.946
10:38:53.464,0.143,-0.323,0.959
10:38:53.658,0.03,-0.211,1.002
10:38:53.854,0.56,-0.089,0.861
10:38:54.049,-0.206,-0.13,0.963
10:38:54.243,0.141,-0.25,0.903
10:38:54.439,0.233,-0.257,0.897
10:38:54.634,-0.009,-0.176,0.946
10:38:54.829,0.312,-0.251,0.83
10:38:55.023,-0.014,-0.192,1.041
10:38:55.219,-0.002,-0.056,0.999
10:38:55.413,-0.044,-0.064,0.936
10:38:55.608,0.105,-0.176,0.992
10:38:55.804,0.069,-0.124,0.99
10:38:55.998,0.034,0.065,1.015
10:38:56.193,-0.031,0.17,0.972
10:38:56.390,-0.052,0.169,0.955
10:38:56.584,-0.119,0.102,1.021
10:38:56.778,0.048,0.066,0.99
10:38:57.023,0.013,-0.044,1.013
10:38:57.217,0.015,-0.081,0.991
10:38:57.412,0.017,-0.117,1.008
10:38:57.608,0.005,-0.117,0.997
10:38:57.802,0.014,-0.092,0.991
10:38:57.997,-0.003,-0.091,0.99
10:38:58.192,0.02,-0.133,1.001
10:38:58.388,0.039,-0.104,1.007
10:38:58.582,0.053,-0.07,1.01
10:38:58.777,0.019,-0.06,0.993
10:38:58.973,0.045,-0.085,1.022
10:38:59.168,0.029,-0.044,1.007
10:38:59.363,0.043,-0.003,0.982
10:38:59.557,0.028,0.0,1.009
10:38:59.753,0.036,-0.014,1.0
10:38:59.947,0.04,-0.037,1.021
10:39:00.142,0.014,-0.171,0.98
10:39:00.338,0.087,-0.35,0.891
10:39:00.532,-0.157,-0.88,0.614
10:39:00.728,0.01,-0.972,0.377
10:39:00.922,-0.093,-1.08,0.225
10:39:01.117,-0.192,-0.969,0.242
10:39:01.362,-0.151,-0.993,0.11
10:39:01.556,-0.078,-1.027,0.003
10:39:01.751,-0.041,-1.043,-0.012
10:39:01.947,-0.074,-1.048,0.165
10:39:02.143,-0.133,-0.85,0.435
10:39:02.337,0.002,-0.34,0.849
10:39:02.531,-0.092,0.009,0.941
10:39:02.726,0.006,0.008,0.977
10:39:02.921,0.055,-0.072,1.011
10:39:03.117,0.148,-0.143,1.007
10:39:03.312,0.108,-0.09,0.997
10:39:03.507,0.122,-0.067,1.084
10:39:03.702,0.084,-0.102,1.002
10:39:03.896,0.09,-0.011,0.958
10:39:04.091,0.083,-0.016,0.971
10:39:04.287,-0.012,-0.087,1.02
10:39:04.481,0.04,-0.064,1.021
10:39:04.676,0.072,-0.077,1.109
10:39:04.872,0.068,-0.043,1.022
10:39:05.066,0.125,-0.03,0.943
10:39:05.261,0.089,-0.002,1.063
10:39:05.457,0.075,-0.061,1.106
10:39:05.701,0.14,0.005,0.923
10:39:05.895,0.135,0.024,1.022
10:39:06.090,0.08,-0.028,1.067
10:39:06.285,0.16,0.032,1.015
10:39:06.480,0.084,-0.005,1.079
10:39:06.676,0.06,0.062,1.109
10:39:06.870,0.032,0.08,1.067
10:39:07.064,0.041,0.201,0.948
10:39:07.259,0.063,0.119,1.006
10:39:07.454,0.0,-0.037,1.044
10:39:07.650,0.057,-0.004,1.118
10:39:07.844,0.164,0.161,0.997
10:39:08.041,0.21,0.077,0.94
10:39:08.235,0.113,0.034,1.071
10:39:08.430,0.162,0.02,0.939
10:39:08.626,0.223,-0.024,0.963
10:39:08.820,0.129,-0.029,0.975
10:39:09.016,0.124,-0.033,1.047
10:39:09.210,0.136,-0.143,0.96
10:39:09.406,0.253,-0.034,1.022
10:39:09.599,0.276,0.02,0.955
10:39:09.795,0.295,0.059,0.887
10:39:10.038,0.239,0.207,0.625
10:39:10.233,0.694,0.428,0.677
10:39:10.429,0.996,0.669,0.096
10:39:10.625,0.881,0.341,0.171
10:39:10.818,0.606,-0.058,0.812
10:39:11.015,1.101,0.269,0.499
10:39:11.209,0.467,-0.076,0.653
10:39:11.404,0.831,0.117,0.65
10:39:11.598,0.91,0.17,0.503
10:39:11.794,0.63,-0.056,0.683
10:39:11.989,0.744,0.056,0.664
10:39:12.185,0.761,0.226,0.389
10:39:12.380,0.726,0.699,0.2
10:39:12.575,0.862,0.769,-0.013
10:39:12.769,0.787,0.483,-0.466
10:39:12.964,0.737,0.462,-0.494
10:39:13.159,0.872,0.597,-0.573
10:39:13.354,0.841,0.402,-0.073
10:39:13.550,0.87,0.814,0.003
10:39:13.744,0.348,0.701,-0.792
10:39:13.939,-0.034,0.186,-0.88
10:39:14.133,-0.15,-0.017,-0.996
10:39:14.378,-0.145,0.021,-1.02
10:39:14.573,0.373,0.327,-0.657
10:39:14.768,0.872,0.332,0.288
10:39:14.962,1.04,0.196,0.421
10:39:15.158,0.772,0.179,0.766
10:39:15.353,0.861,0.301,0.53
10:39:15.548,0.681,0.079,0.747
10:39:15.743,0.464,0.059,0.776
10:39:15.937,0.383,-0.139,0.938
10:39:16.132,0.348,-0.306,0.87
10:39:16.328,0.745,-0.181,0.505
10:39:16.523,1.08,0.462,-0.204
10:39:16.717,0.989,0.391,-0.349
10:39:16.913,0.808,0.502,-0.275
10:39:17.108,0.582,0.287,0.557
10:39:17.303,0.345,-0.1,0.892
10:39:17.497,0.3,0.704,0.527
10:39:17.693,0.15,0.965,0.206
10:39:17.888,0.202,0.987,0.01
10:39:18.083,0.105,0.896,-0.083
10:39:18.278,0.067,0.984,-0.18
10:39:18.474,0.037,0.975,-0.197
10:39:18.668,0.079,0.947,-0.163
10:39:18.912,0.046,0.963,-0.162
10:39:19.107,0.058,0.982,-0.157
10:39:19.302,0.075,0.976,-0.142
10:39:19.497,0.081,0.953,-0.149
10:39:19.692,0.078,0.972,-0.14
10:39:19.886,0.124,1.159,-0.092
10:39:20.082,0.179,-0.024,0.859
10:39:20.276,0.24,0.146,0.989
10:39:20.471,0.247,0.081,0.958
10:39:20.666,0.259,0.109,0.957
10:39:20.862,0.283,0.148,0.975
10:39:21.056,0.306,0.344,0.848
10:39:21.252,0.335,0.41,0.832
10:39:21.447,0.49,0.278,0.56
10:39:21.641,0.078,0.753,-0.293
10:39:21.836,0.173,0.952,-0.348
10:39:22.031,0.194,0.931,-0.341
10:39:22.226,0.242,0.88,-0.299
10:39:22.424,0.403,1.079,-0.336
10:39:22.617,0.401,-0.189,0.843
10:39:22.812,0.437,0.031,0.906
10:39:23.007,0.457,0.102,0.911
10:39:23.251,0.1,0.02,0.981
10:39:23.445,0.401,-0.118,0.919
10:39:23.640,0.387,-0.423,0.718
10:39:23.835,0.342,-0.612,0.658
10:39:24.030,0.428,-0.661,0.645
10:39:24.225,0.431,-0.721,0.621
10:39:24.420,0.42,-0.742,0.617
10:39:24.615,0.398,-0.624,0.634
10:39:24.810,0.122,-0.821,0.454
10:39:25.005,-0.323,-1.041,0.283
10:39:25.201,-0.068,-1.07,-0.011
10:39:25.395,0.601,-0.23,-0.682
10:39:25.590,0.299,0.276,-0.75
10:39:25.786,-0.097,0.475,-0.918
10:39:25.980,-0.07,0.351,-0.927
10:39:26.176,-0.082,0.198,-0.982
10:39:26.371,0.464,-0.254,-0.942
10:39:26.566,0.788,-0.38,0.025
10:39:26.761,0.949,-0.297,0.354
10:39:26.956,0.897,-0.157,0.344
10:39:27.150,0.936,0.044,0.485
10:39:27.345,0.835,-0.346,0.583
10:39:27.589,0.27,-0.709,0.674
10:39:27.784,0.318,-0.645,0.661
10:39:27.979,0.43,-0.395,0.907
10:39:28.173,0.648,-0.245,0.958
10:39:28.369,0.188,-0.573,0.828
10:39:28.565,0.192,-0.597,0.783
10:39:28.760,0.142,-0.578,0.833
10:39:28.954,0.079,-0.558,0.797
10:39:29.149,0.125,-0.505,0.847
10:39:29.344,0.534,-0.042,1.113
10:39:29.539,0.442,0.053,0.85
10:39:29.735,0.083,0.135,0.97
10:39:29.929,-0.102,0.153,1.023
10:39:30.125,-0.046,0.183,1.004
10:39:30.320,0.0,0.124,0.998
10:39:30.514,0.017,0.095,1.004
10:39:30.709,0.021,0.162,1.01
10:39:30.904,0.011,0.153,0.969
10:39:31.099,-0.014,0.203,0.971
10:39:31.294,0.02,0.223,1.007
10:39:31.490,0.083,0.145,1.001
10:39:31.684,0.091,-0.076,1.049
10:39:31.928,-0.189,0.198,0.879
10:39:32.123,-0.19,0.29,1.019
10:39:32.317,-0.222,0.278,0.964
10:39:32.512,-0.186,0.297,0.896
10:39:32.707,-0.197,0.289,0.943
10:39:32.902,-0.162,0.249,0.948
10:39:33.098,-0.152,0.221,0.976
10:39:33.294,-0.174,0.213,0.957
10:39:33.490,-0.154,0.223,0.954
10:39:33.685,-0.266,0.151,0.814
10:39:33.878,-0.159,0.242,1.048
10:39:34.073,-0.097,0.002,0.998
10:39:34.268,-0.062,0.067,0.962
10:39:34.465,-0.061,0.144,0.997
10:39:34.657,-0.092,0.14,0.98
10:39:34.854,-0.091,0.185,1.029
10:39:35.048,-0.063,0.145,0.996
10:39:35.243,-0.059,0.152,0.977
10:39:35.438,-0.075,0.126,1.008
10:39:35.633,-0.129,0.115,1.002
10:39:35.831,-0.126,0.037,1.061
10:39:36.023,-0.156,0.14,1.025
10:39:36.267,-0.137,0.11,0.93
10:39:36.462,-0.173,0.093,1.01
10:39:36.608,0.229,0.824,1.041
10:39:36.852,0.133,0.721,0.613
10:39:37.049,0.054,0.122,1.133
10:39:37.242,0.085,0.151,0.924
10:39:37.437,0.011,0.116,0.953
10:39:37.632,-0.05,0.139,0.898
10:39:37.827,-0.052,0.143,1.12
10:39:38.022,-0.033,0.179,1.004
10:39:38.217,-0.012,0.21,0.972
10:39:38.416,-0.029,0.208,0.978
10:39:38.607,-0.07,0.078,0.991
10:39:38.803,-0.008,0.108,1.02
10:39:38.998,0.041,0.073,1.0
10:39:39.191,-0.02,0.081,0.969
10:39:39.387,-0.02,0.006,0.994
10:39:39.582,-0.104,0.121,0.761
10:39:39.778,-0.323,0.14,1.039
10:39:53.647,1.999,0.958,1.601
10:39:53.740,0.388,-0.135,0.947
10:39:53.936,0.338,-0.132,0.915
10:39:54.131,0.237,-0.152,0.979
10:39:54.326,0.126,-0.167,0.898
10:39:54.522,0.607,0.299,1.049
10:39:54.716,0.515,0.524,0.637
10:39:54.910,0.205,0.159,0.794
10:39:55.106,0.317,0.244,1.587
10:39:55.300,0.05,0.019,1.16
10:39:55.497,0.074,0.07,0.998
10:39:55.691,0.082,0.05,0.981
10:39:55.934,0.056,0.014,1.03
10:39:56.130,0.057,0.011,0.963
10:39:56.324,0.035,-0.031,1.011
10:39:56.520,0.051,-0.023,1.021
10:39:56.716,0.034,-0.038,0.995
10:39:56.910,0.038,-0.029,1.035
10:39:57.104,0.046,-0.022,1.006
10:39:57.300,0.042,-0.126,1.01
10:39:57.495,0.058,-0.155,0.992
10:39:57.689,0.062,-0.146,1.017
10:39:57.885,0.03,-0.149,1.029
10:39:58.079,-0.092,-0.199,0.983
10:39:58.275,0.313,0.108,0.977
10:39:58.472,0.209,0.079,1.176
10:39:58.665,0.74,0.279,0.805
10:39:58.859,-0.153,-0.712,0.893
10:39:59.054,-0.245,-0.706,0.728
10:39:59.251,0.077,-0.303,0.838
10:39:59.445,0.46,-0.334,1.048
10:39:59.639,0.24,-0.016,0.986
10:39:59.835,0.333,-0.112,1.12
10:40:00.030,0.121,-0.42,0.844
10:40:00.273,0.216,-0.251,1.162
10:40:00.470,0.276,-0.103,0.941
10:40:00.664,0.417,-0.153,0.981
10:40:00.858,0.339,0.034,0.941
10:40:01.053,0.252,-0.399,0.987
10:40:01.249,0.492,0.137,0.512
10:40:01.443,0.651,0.034,0.745
10:40:01.639,0.582,-0.117,0.798
10:40:01.834,0.566,0.059,0.859
10:40:02.027,0.046,-0.015,0.959
10:40:02.223,-0.025,-0.099,1.012
10:40:02.418,0.01,-0.095,0.993
10:40:02.614,-0.032,-0.069,1.009
10:40:02.809,-0.021,-0.101,0.999
10:40:03.003,-0.016,-0.093,1.01
10:40:03.202,-0.019,-0.082,0.995
10:40:03.393,-0.043,-0.075,1.017
10:40:03.587,-0.045,-0.185,1.023
10:40:03.783,-0.039,-0.094,1.036
10:40:03.979,-0.035,0.119,1.013
10:40:04.173,-0.032,0.073,0.988
10:40:04.369,-0.022,0.09,1.023
10:40:04.611,-0.026,0.065,1.019
10:40:04.807,-0.021,0.078,1.02
10:40:05.002,0.04,0.03,0.993
10:40:05.197,-0.075,0.033,0.985
10:40:05.392,0.012,0.053,1.014
10:40:05.587,0.114,0.029,1.092
10:40:05.783,0.166,0.076,0.981
10:40:05.977,-0.539,-0.227,0.769
10:40:06.172,0.329,0.054,1.116
10:40:06.367,0.139,-0.111,0.983
10:40:06.563,0.075,-0.079,1.081
10:40:06.758,0.119,-0.015,0.976
10:40:06.952,0.08,0.028,1.025
10:40:07.148,-0.173,-0.099,0.962
10:40:07.342,0.054,-0.07,0.994
10:40:07.537,0.085,0.038,0.888
10:40:07.732,0.063,0.039,0.969
10:40:07.927,0.067,0.048,1.01
10:40:08.123,0.081,0.043,1.008
10:40:08.317,0.084,0.05,1.0
10:40:08.512,0.081,0.053,1.0
10:40:08.707,0.082,0.051,1.002
10:40:08.955,0.083,0.051,1.007
10:40:09.145,0.082,0.073,0.993
10:40:09.341,0.089,0.073,0.988
10:40:09.536,0.074,0.055,0.991
10:40:09.732,0.061,0.018,1.032
10:40:09.926,0.054,-0.038,0.982
10:40:10.121,0.052,-0.028,0.996
10:40:10.317,0.043,-0.031,1.002
10:40:10.511,0.061,-0.02,0.997
10:40:10.706,0.067,-0.007,1.007
10:40:10.902,0.062,0.008,1.006
10:40:11.096,0.071,0.023,1.011
10:40:11.291,0.072,0.011,1.008
10:40:11.486,0.026,0.134,1.09
10:40:11.681,-0.05,0.07,1.031
10:40:11.877,-0.025,0.07,1.06
10:40:12.072,-0.089,0.064,0.833
10:40:12.266,-0.208,0.221,1.02
10:40:12.462,-0.254,0.229,0.913
10:40:12.656,-0.179,0.145,0.873
10:40:12.852,0.058,0.27,0.959
10:40:13.046,-0.3,0.047,0.971
10:40:13.290,-0.259,0.026,1.105
10:40:13.484,-0.295,0.056,1.266
10:40:13.681,-0.332,0.193,1.195
10:40:13.875,-0.361,0.179,0.899
10:40:14.070,-0.055,-0.048,1.173
10:40:14.265,-0.102,0.04,1.134
10:40:14.460,0.114,0.077,0.981
10:40:14.655,-0.143,0.068,1.038
10:40:14.851,0.006,0.179,0.955
10:40:15.045,-0.021,0.235,0.959
10:40:15.240,0.028,0.241,0.915
10:40:15.435,0.042,0.213,1.038
10:40:15.629,0.042,0.336,0.906
10:40:15.825,0.083,0.582,0.814
10:40:16.020,0.13,0.605,0.86
10:40:16.215,0.19,0.815,0.482
10:40:16.410,0.117,0.941,0.157
10:40:16.606,0.072,0.909,-0.037
10:40:16.801,0.065,0.942,-0.167
10:40:16.994,0.048,0.973,-0.151
10:40:17.190,0.044,0.992,-0.08
10:40:17.385,0.015,0.937,-0.124
10:40:17.628,0.081,0.976,0.045
10:40:17.824,0.097,0.952,-0.023
10:40:18.019,0.13,0.964,0.014
10:40:18.214,0.093,1.002,0.016
10:40:18.408,0.123,0.951,-0.016
10:40:18.603,0.108,0.957,-0.012
10:40:18.799,0.11,0.993,0.007
10:40:18.994,0.083,0.994,-0.018
10:40:19.188,0.157,0.908,0.069
10:40:19.384,0.068,0.999,0.015
10:40:19.579,0.106,0.977,0.073
10:40:19.774,0.053,1.029,-0.024
10:40:19.969,0.089,0.932,-0.083
10:40:20.163,-0.071,0.915,-0.29
10:40:20.359,0.121,1.012,0.201
10:40:20.554,0.142,0.895,0.202
10:40:20.749,0.145,0.932,-0.158
10:40:20.943,0.059,1.07,0.062
10:40:21.140,0.014,0.957,-0.114
10:40:21.334,0.022,0.903,-0.098
10:40:21.529,0.075,1.006,-0.03
10:40:21.723,0.109,1.026,0.007
10:40:21.968,0.034,0.954,-0.032
10:40:22.163,0.062,0.993,-0.016
10:40:22.358,0.083,0.995,0.018
10:40:22.553,0.056,1.018,-0.018
10:40:22.748,0.071,0.928,-0.056
10:40:22.943,0.079,0.979,-0.029
10:40:23.138,-0.062,0.805,-0.304
10:40:23.332,-0.07,0.974,-0.064
10:40:23.528,-0.013,1.304,0.168
10:40:23.724,-0.051,1.008,-0.061
10:40:23.918,-0.221,0.976,0.12
10:40:24.112,-0.29,0.07,0.354
10:40:24.307,-0.082,-0.278,1.179
10:40:24.502,-0.035,-0.287,1.057
10:40:24.698,0.013,-0.082,1.014
10:40:24.893,0.029,-0.106,1.016
10:40:25.088,0.017,-0.063,1.009
10:40:25.282,0.027,-0.068,1.01
10:40:25.477,0.017,-0.073,0.993
10:40:25.676,0.034,-0.065,0.988
10:40:25.868,-0.001,-0.007,1.002
10:40:26.063,-0.076,0.033,1.003
10:40:26.307,0.006,0.011,1.035
10:40:26.500,-0.042,0.042,0.992
10:40:26.695,-0.046,0.021,1.007
10:40:26.891,-0.076,0.039,0.973
10:40:27.086,-0.032,0.026,1.004
10:40:27.281,-0.028,0.008,1.013
10:40:27.476,-0.06,0.023,0.993
10:40:27.672,-0.056,0.019,1.0
10:40:27.867,-0.014,0.016,0.99
10:40:28.061,0.0,-0.034,1.013
10:40:28.257,0.011,-0.021,1.009
10:40:28.452,0.024,-0.02,0.993
10:40:28.646,0.023,-0.031,1.0
10:40:28.841,0.018,-0.036,0.989
10:40:29.038,0.028,0.0,0.987
10:40:29.232,0.245,0.135,1.039
10:40:29.426,0.262,-0.075,0.968
10:40:29.622,0.857,0.655,0.643
10:40:29.817,0.462,0.252,0.769
10:40:30.011,0.499,0.168,0.827
10:40:30.207,0.518,0.148,0.814
10:40:30.401,0.323,0.306,0.765
10:40:30.645,0.189,-0.026,1.003
10:40:30.842,0.132,-0.178,1.132
10:40:31.036,0.017,0.004,0.966
10:40:31.230,0.028,0.019,1.055
10:40:31.426,0.015,0.091,1.082
10:40:31.621,0.038,0.056,0.969
10:40:31.815,0.11,-0.088,0.965
10:40:32.010,0.157,-0.015,0.982
10:40:32.205,0.288,0.077,0.891
10:40:32.401,0.31,0.03,1.024
10:40:32.595,0.275,-0.029,0.953
10:40:32.790,0.355,-0.059,1.073
10:40:32.986,0.456,0.053,0.778
10:40:33.180,-0.058,-0.125,1.182
10:40:33.376,-0.064,0.02,1.034
10:40:33.571,0.09,-0.244,0.995
10:40:33.766,0.117,0.077,0.924
10:40:33.960,-0.008,-0.047,1.0
10:40:34.155,0.028,-0.049,0.991
10:40:34.350,0.021,-0.026,1.006
10:40:34.546,0.021,-0.047,1.024
10:40:34.741,0.052,-0.184,1.126
10:40:34.936,0.033,-0.198,0.982
10:40:35.179,-0.02,-0.2,1.01
10:40:35.375,0.067,-0.094,0.978
10:40:35.569,0.0,0.003,1.004
10:40:35.765,0.137,-0.04,1.017
10:40:35.959,0.03,-0.085,1.025
10:40:36.155,-0.026,-0.039,1.009
10:40:36.354,0.061,-0.071,0.988
10:40:36.546,-0.089,-0.209,1.204
10:40:36.739,-0.116,-0.143,0.922
10:40:36.934,-0.083,-0.059,1.054
10:40:37.128,0.283,0.171,0.996
10:40:37.325,0.124,-0.149,0.772
10:40:37.520,-0.014,-0.002,1.015
10:40:37.714,-0.028,0.064,1.005
10:40:37.909,-0.035,0.043,1.002
10:40:38.105,0.013,-0.026,0.995
10:40:38.299,0.059,0.02,1.015
10:40:38.495,-0.077,-0.048,1.025
10:40:38.690,-0.17,-0.054,1.072
10:40:38.884,-0.094,-0.079,1.027
10:40:39.078,0.085,0.0,0.954
10:40:39.277,-0.053,0.046,0.972
10:40:39.518,-0.013,0.034,0.913
10:40:39.713,0.043,0.009,0.949
10:40:39.907,-0.018,-0.041,1.004
10:40:40.102,-0.026,-0.014,0.994
10:40:40.298,-0.018,-0.018,1.003
10:40:40.494,-0.024,-0.007,0.999
10:40:40.687,-0.015,-0.012,1.01
10:40:40.883,0.002,-0.012,1.0
10:40:41.078,-0.006,-0.002,0.999
10:40:41.274,-0.005,-0.004,1.009
10:40:41.468,0.009,-0.001,1.007
10:40:41.663,-0.01,-0.002,0.996
10:40:41.859,0.0,-0.009,1.012
10:40:42.053,-0.005,-0.012,0.984
10:40:42.249,-0.002,-0.008,1.009
10:40:42.443,-0.01,-0.013,1.0
10:40:42.637,-0.013,-0.014,0.992
10:40:42.833,-0.011,0.0,1.0
10:40:43.028,0.003,-0.017,1.012
10:40:43.223,-0.015,0.004,1.0
10:40:44.247,1.999,1.493,1.287
10:40:44.344,-0.025,0.004,0.99
10:40:44.539,0.0,-0.002,0.995
10:40:44.734,0.015,-0.007,1.007
10:40:44.931,-0.01,-0.018,1.004
10:40:45.124,-0.014,-0.009,1.01
10:40:45.320,0.012,-0.019,0.987
10:40:45.515,-0.005,-0.013,1.011
10:40:45.710,0.001,-0.01,1.0
10:40:45.905,0.0,-0.006,1.0
10:40:46.099,0.01,-0.001,0.999
10:40:46.294,-0.008,0.01,1.007
10:40:46.490,0.002,-0.009,0.989
10:40:46.734,0.005,-0.012,0.999
10:40:46.929,-0.006,-0.01,1.001
10:40:47.124,-0.002,-0.012,1.026
10:40:47.317,0.002,-0.021,1.002
10:40:47.512,-0.002,-0.01,1.002
10:40:47.708,-0.031,0.004,1.0
10:40:47.904,0.007,-0.006,1.009
10:40:48.099,0.006,-0.017,0.999
10:40:48.294,-0.011,-0.003,0.969
10:40:48.489,-0.005,-0.008,1.012
10:40:48.683,-0.017,0.005,1.007
10:40:48.878,-0.002,-0.007,1.002
10:40:49.074,-0.015,-0.002,1.013
10:40:49.269,-0.004,-0.017,1.003
10:40:49.464,-0.004,-0.006,0.999
10:40:49.659,-0.017,-0.021,1.006
10:40:49.852,-0.014,-0.009,1.032
10:40:50.048,0.0,-0.012,0.995
10:40:50.244,-0.001,-0.013,1.006
10:40:50.439,0.003,-0.006,1.002
10:40:50.634,-0.003,-0.009,1.02
10:40:50.828,-0.001,-0.009,1.006
10:40:51.071,0.0,-0.011,0.991
10:40:51.267,0.0,-0.01,1.005
10:40:51.463,-0.001,-0.005,0.999
10:40:51.657,0.008,-0.011,1.009
10:40:51.852,0.001,-0.007,1.007
10:40:52.047,-0.012,-0.004,1.008
10:40:52.242,0.0,-0.006,0.993
10:40:52.437,0.007,-0.007,0.999
10:40:52.632,-0.011,-0.008,0.998
10:40:52.826,-0.02,-0.008,0.995
10:40:53.023,-0.006,0.0,1.012
10:40:53.217,-0.001,-0.018,0.998
10:40:53.413,-0.001,-0.019,1.007
10:40:53.607,0.005,-0.008,1.005
10:40:53.803,-0.017,-0.012,1.008
10:40:53.997,-0.015,0.0,0.995
10:40:54.193,-0.002,-0.012,0.982
10:40:54.387,-0.002,-0.018,1.014
10:40:54.582,-0.005,-0.01,1.022
10:40:54.777,0.0,-0.002,1.0
10:40:54.972,-0.013,0.0,1.005
10:40:55.168,-0.014,-0.011,1.033
10:40:55.411,-0.004,-0.015,1.016
10:40:55.606,-0.001,-0.005,1.007
10:40:55.801,-0.004,0.009,0.998
10:40:55.997,-0.01,-0.016,1.005
10:40:56.191,0.005,0.0,0.992
10:40:56.386,0.01,-0.018,1.002
10:40:56.581,-0.002,-0.006,1.014
10:40:56.777,-0.002,-0.002,1.0
10:40:56.971,-0.002,0.003,1.009
10:40:57.165,-0.009,-0.008,0.998
10:40:57.362,-0.002,-0.015,1.012
10:40:57.557,0.012,-0.012,1.011
10:40:57.751,0.013,-0.009,0.998
10:40:57.946,-0.018,-0.004,1.006
10:40:58.141,0.001,-0.013,0.986
10:40:58.336,0.075,-0.001,1.237
10:40:58.532,-0.039,-0.212,1.144
10:40:58.726,0.062,0.132,0.874
10:40:58.921,0.051,0.145,0.879
10:40:59.116,0.067,0.208,0.966
10:40:59.311,0.05,0.232,1.054
10:40:59.506,-0.11,0.033,1.044
10:40:59.750,-0.147,-0.077,1.0
10:40:59.945,-0.006,-0.124,0.817
10:41:00.140,-0.032,-0.531,1.154
10:41:00.335,0.097,-0.226,0.993
10:41:00.529,0.05,-0.113,0.966
10:41:00.724,0.051,-0.09,1.017
10:41:00.920,0.066,-0.048,1.006
10:41:01.114,0.003,0.008,1.027
10:41:01.311,-0.011,0.078,1.02
10:41:01.505,-0.013,0.031,1.014
10:41:01.700,0.006,0.103,0.992
10:41:01.944,-0.02,0.074,1.039
10:41:02.089,-0.026,0.109,1.016
10:41:02.285,-0.01,0.112,0.997
10:41:02.479,-0.023,0.147,0.979
10:41:02.674,0.205,0.313,0.96
10:41:02.870,-0.005,0.073,0.953
10:41:03.065,0.094,0.062,0.982
10:41:03.259,-0.021,0.048,1.048
10:41:03.455,-0.055,0.051,0.939
10:41:03.650,-0.128,0.039,1.022
10:41:03.844,-0.056,0.078,0.983
10:41:04.089,-0.022,0.119,0.977
10:41:04.283,-0.003,0.165,1.003
10:41:04.478,-0.054,0.138,0.958
10:41:04.673,-0.003,0.195,0.964
10:41:04.867,-0.048,0.195,1.002
10:41:05.063,-0.034,0.197,0.969
10:41:05.258,0.04,0.213,1.034
10:41:05.454,0.02,0.138,1.0
10:41:05.649,0.024,0.158,0.998
10:41:05.844,0.034,0.154,0.992
10:41:06.038,0.044,0.166,0.98
10:41:06.234,0.035,0.167,0.99
10:41:06.428,0.021,0.174,1.081
10:41:06.624,-0.088,-0.073,0.935
10:41:06.818,-0.122,0.025,0.992
10:41:07.013,0.029,0.198,1.003
10:41:07.209,0.039,0.156,0.953
10:41:07.403,0.087,0.172,0.978
10:41:07.599,0.015,0.164,0.982
10:41:07.793,0.089,0.208,0.994
10:41:07.988,-0.03,-0.081,0.817
10:41:08.184,-0.126,0.033,1.08
10:41:08.428,0.024,0.178,1.063
10:41:08.623,0.114,0.133,0.99
10:41:08.817,0.12,0.175,0.995
10:41:09.012,0.015,0.15,1.014
10:41:09.209,-0.025,0.111,1.001
10:41:09.403,-0.042,0.0,0.935
10:41:09.598,-0.028,0.047,1.006
10:41:09.792,-0.035,0.196,1.105
10:41:09.987,-0.332,0.074,1.479
10:41:10.182,0.106,-0.176,0.625
10:41:10.378,0.58,0.504,0.933
10:41:10.572,0.026,0.125,1.153
10:41:10.767,0.133,-0.178,0.995
10:41:10.962,0.126,-0.06,1.024
10:41:11.158,0.094,-0.105,0.962
10:41:11.353,0.077,-0.101,1.034
10:41:11.547,0.031,-0.061,0.979
10:41:11.742,0.044,-0.066,0.997
10:41:11.938,0.087,0.166,0.888
10:41:12.133,0.02,0.246,0.987
10:41:12.328,0.021,0.268,0.938
10:41:12.523,0.112,0.226,0.869
10:41:12.766,-0.15,-0.082,0.607
10:41:12.961,-0.215,0.086,1.676
10:41:13.157,0.144,0.107,1.135
10:41:13.353,0.115,0.059,0.937
10:41:13.546,0.1,0.127,0.992
10:41:13.742,-0.027,0.107,0.966
10:41:13.937,0.05,0.076,1.019
10:41:14.131,0.072,0.055,0.971
10:41:14.326,0.002,0.109,0.997
10:41:14.522,-0.069,0.027,1.025
10:41:14.717,-0.009,0.092,0.999
10:41:14.910,0.051,-0.01,0.995
10:41:15.105,0.024,0.038,1.001
10:41:15.301,0.042,-0.029,1.0
10:41:15.496,0.015,-0.006,1.01
10:41:15.693,0.028,-0.022,0.997
10:41:15.887,0.024,-0.005,0.994
10:41:16.080,0.025,-0.013,0.999
10:41:16.276,0.025,-0.022,1.011
10:41:16.472,0.025,-0.008,0.993
10:41:16.667,0.029,0.002,1.012
10:41:16.861,0.016,0.0,0.996
10:41:17.105,0.045,-0.007,0.997
10:41:17.300,0.035,0.003,0.982
10:41:17.494,0.016,-0.01,1.016
10:41:17.691,0.014,-0.008,0.987
10:41:17.885,0.031,-0.012,0.978
10:41:18.080,0.008,-0.001,1.003
10:41:18.276,0.017,-0.022,1.001
10:41:18.470,0.022,-0.011,1.0
10:41:18.665,0.023,-0.019,1.008
10:41:18.860,0.02,-0.008,1.006
10:41:19.055,0.024,-0.025,1.005
10:41:19.250,0.014,-0.028,1.003
10:41:19.445,0.015,-0.01,0.998
10:41:19.639,0.03,-0.012,1.007
10:41:19.835,0.023,-0.023,1.003
10:41:20.030,0.01,-0.02,1.009
10:41:21.103,1.999,1.791,0.889
10:41:21.200,0.017,-0.01,0.997
10:41:21.395,0.026,-0.022,0.997
10:41:21.590,0.015,-0.02,1.013
10:41:21.785,0.024,-0.017,1.002
10:41:21.980,0.026,-0.016,0.997
10:41:22.175,0.025,-0.03,1.011
10:41:22.370,0.014,0.003,0.997
10:41:22.566,0.016,-0.013,1.003
10:41:22.760,0.023,-0.008,1.001
10:41:22.956,0.014,-0.028,0.998
10:41:23.150,0.019,0.0,1.007
10:41:23.345,0.039,-0.028,1.01
10:41:23.589,0.018,-0.018,0.991
10:41:23.784,0.02,-0.022,1.002
10:41:23.979,0.023,-0.011,0.993
10:41:24.174,0.022,-0.02,1.001
10:41:24.370,0.013,-0.013,0.999
10:41:24.565,0.028,-0.004,1.01
10:41:24.759,0.02,-0.014,1.002
10:41:24.955,0.027,-0.02,0.997
10:41:25.148,0.02,-0.002,1.0
10:41:25.344,0.032,-0.029,0.996
10:41:25.540,0.02,-0.002,0.999
10:41:25.734,0.026,-0.017,1.007
10:41:25.929,0.017,-0.016,0.998
10:41:26.125,0.017,-0.01,0.98
10:41:26.318,0.025,-0.007,1.002
10:41:26.514,0.036,-0.022,1.005
10:41:26.710,0.007,-0.023,1.015
10:41:26.906,0.022,0.002,1.023
10:41:27.100,0.019,-0.012,0.988
10:41:27.296,0.028,-0.021,1.014
10:41:27.489,0.025,-0.014,0.994
10:41:27.684,0.013,-0.005,1.011
10:41:27.928,0.032,-0.015,1.0
10:41:28.122,0.021,-0.017,1.002
10:41:28.317,0.03,-0.006,1.012
10:41:28.512,0.21,-0.088,1.031
10:41:28.708,0.055,-0.007,1.012
10:41:28.904,0.065,-0.029,1.007
10:41:29.098,0.02,-0.013,1.047
10:41:29.293,0.026,-0.009,0.999
10:41:29.487,0.018,-0.026,1.007
10:41:29.683,0.024,-0.016,0.999
10:41:29.877,0.026,-0.025,0.995
10:41:30.075,0.034,-0.017,1.01
10:41:30.268,0.04,-0.004,1.015
10:41:30.463,0.016,-0.007,1.007
10:41:30.657,0.01,-0.022,1.006
10:41:30.853,0.026,-0.01,1.005
10:41:31.048,0.056,-0.015,1.012
10:41:31.244,0.021,-0.016,1.039
10:41:31.438,-0.016,0.045,0.785
10:41:31.634,0.079,-0.15,0.981
10:41:31.828,0.068,-0.07,0.979
10:41:32.023,0.09,-0.069,0.979
10:41:32.266,0.08,-0.054,0.972
10:41:32.462,0.118,-0.048,1.03
10:41:32.656,0.011,-0.056,0.999
10:41:32.852,0.045,-0.105,1.016
10:41:33.047,0.044,-0.146,1.003
10:41:33.241,0.041,-0.092,1.008
10:41:33.437,0.093,-0.002,0.98
10:41:33.632,0.076,0.025,1.017
10:41:33.827,0.051,0.016,1.012
10:41:34.022,0.043,0.054,1.028
10:41:34.217,-0.058,-0.039,1.007
10:41:34.412,0.0,-0.07,1.0
10:41:34.608,0.0,-0.061,0.984
10:41:34.803,-0.066,0.171,0.96
10:41:34.996,0.005,0.127,0.998
10:41:35.192,0.006,0.026,0.999
10:41:35.387,-0.024,0.013,1.006
10:41:35.582,-0.01,-0.023,1.045
10:41:35.777,0.049,-0.002,0.985
10:41:35.972,0.107,-0.012,1.017
10:41:36.166,0.029,-0.021,1.014
10:41:36.362,0.04,-0.052,0.995
10:41:36.606,0.06,-0.049,1.018
10:41:36.801,0.042,-0.039,1.034
10:41:36.995,0.019,-0.02,1.005
10:41:37.191,0.039,-0.028,1.005
10:41:37.385,0.031,-0.031,1.012
10:41:37.581,0.026,-0.007,0.998
10:41:37.776,0.021,-0.02,0.998
10:41:37.970,0.034,-0.03,1.011
10:41:38.166,0.033,-0.026,0.998
10:41:38.361,0.052,-0.022,1.001
10:41:38.556,0.038,-0.036,1.005
10:41:38.751,0.056,-0.028,1.008
10:41:38.945,0.045,-0.014,0.997
10:41:39.141,0.048,-0.032,0.987
10:41:39.384,0.054,-0.029,1.013
10:41:39.530,0.028,-0.037,0.988
10:41:39.725,0.03,-0.032,1.015
10:41:39.924,0.053,-0.023,1.015
10:41:40.115,0.034,-0.023,1.004
10:41:40.310,0.036,-0.03,1.026
10:41:40.505,0.048,-0.019,1.003
10:41:40.701,0.037,-0.026,1.006
10:41:40.944,0.052,-0.031,1.002
10:41:41.140,0.034,-0.022,1.006
10:41:41.335,0.038,-0.038,1.006
10:41:41.529,0.054,-0.018,1.019
10:41:41.724,0.026,-0.049,0.98
10:41:41.919,0.068,-0.022,1.01
10:41:42.115,0.041,-0.025,1.002
10:41:42.309,0.042,-0.037,0.982
10:41:42.504,0.009,0.023,1.051
10:41:42.699,0.145,0.241,1.163
10:41:42.894,0.111,0.504,0.982
10:41:43.090,0.05,0.566,0.283
10:41:43.284,0.229,0.825,0.022
10:41:43.479,0.213,0.988,0.003
10:41:43.674,0.383,0.874,0.123
10:41:43.870,0.475,0.869,0.05
10:41:44.064,0.315,0.97,0.204
10:41:44.260,0.249,0.921,0.181
10:41:44.457,0.464,1.109,0.405
10:41:44.650,0.357,0.797,0.369
10:41:44.845,0.4,0.887,0.307
10:41:45.040,0.315,0.989,0.158
10:41:45.283,0.261,0.936,0.209
10:41:45.478,0.281,0.925,0.243
10:41:45.673,0.278,0.904,0.27
10:41:45.869,0.023,1.101,0.493
10:41:46.064,0.122,0.711,0.657
10:41:46.258,0.275,0.455,0.825
10:41:46.453,0.283,0.321,0.862
10:41:46.648,0.334,0.309,0.886
10:41:46.843,0.365,0.257,0.772
10:41:47.039,-0.439,0.542,0.703
10:41:47.234,-0.696,0.735,0.355
10:41:47.428,-0.654,0.643,0.24
10:41:47.623,-0.666,0.699,0.237
10:41:47.818,-0.706,0.659,0.182
10:41:48.014,-0.649,0.685,0.257
10:41:48.208,-0.684,0.633,0.227
10:41:48.404,-0.652,0.719,0.294
10:41:48.598,-0.704,0.68,0.252
10:41:48.795,-0.734,0.693,0.25
10:41:48.988,-0.707,0.602,0.19
10:41:49.184,-0.726,0.647,0.256
10:41:49.378,-0.683,0.651,0.29
10:41:49.622,-0.722,0.655,0.23
10:41:49.816,-0.687,0.668,0.259
10:41:50.013,-0.739,0.655,0.216
10:41:50.209,-0.68,0.661,0.242
10:41:50.401,-0.618,0.718,0.307
10:42:39.104,0.29,0.231,0.912
10:42:39.299,0.315,0.243,0.924
10:42:39.495,0.316,0.216,0.918
10:42:39.691,0.304,0.204,0.924
10:42:39.886,0.263,0.076,0.904
10:42:40.081,0.274,0.04,0.836
10:42:40.275,0.154,-0.216,1.031
10:42:40.471,0.148,-0.073,1.108
10:42:40.715,0.27,0.062,0.925
10:42:40.908,0.242,0.067,0.963
10:42:41.105,0.259,0.106,0.989
10:42:41.298,0.225,0.109,0.979
10:42:41.494,0.279,0.128,0.971
10:42:41.691,0.26,0.141,0.943
10:42:41.885,0.281,0.164,0.952
10:42:42.079,0.286,0.161,0.947
10:42:42.273,0.287,0.125,0.965
10:42:42.468,0.248,0.146,0.949
10:42:42.662,0.286,0.155,0.953
10:42:42.857,0.266,0.146,0.957
10:42:43.052,0.287,0.15,0.95
10:42:43.248,0.258,0.113,0.982
10:42:43.444,0.281,0.136,0.958
10:42:43.638,0.285,0.143,0.961
10:42:43.832,0.281,0.152,0.944
10:42:44.028,0.295,0.135,0.953
10:42:44.223,0.251,0.144,0.955
10:42:44.420,0.27,0.178,0.955
10:42:44.613,0.269,0.187,0.954
10:42:44.807,0.263,0.172,0.943
10:42:45.051,0.29,0.208,0.933
10:42:45.247,0.29,0.182,0.959
10:42:45.441,0.168,0.435,0.95
10:42:45.637,0.33,0.398,0.75
10:42:45.831,0.395,0.277,0.849
10:42:46.027,0.395,0.312,0.881
10:42:46.221,0.393,0.312,0.866
10:42:46.417,0.377,0.316,0.875
10:42:46.612,0.369,0.299,0.881
10:42:46.807,0.386,0.289,0.881
10:42:47.002,0.351,0.323,0.869
10:42:47.197,0.36,0.291,0.895
10:42:47.392,0.36,0.288,0.884
10:42:47.587,0.361,0.291,0.903
10:42:47.782,0.361,0.302,0.881
10:42:47.977,0.343,0.281,0.888
10:42:48.172,0.324,0.293,0.902
10:42:48.367,0.32,0.303,0.899
10:42:48.563,0.341,0.362,0.869
10:42:48.758,0.194,0.012,0.889
10:42:48.953,0.154,-0.057,1.013
10:42:49.147,0.105,0.103,0.953
10:42:49.391,0.133,0.085,0.979
10:42:49.586,0.135,0.091,0.967
10:42:49.781,0.136,0.096,0.996
10:42:49.976,0.147,0.131,0.987
10:42:50.171,0.078,0.117,1.002
10:42:50.366,0.077,0.084,0.989
10:42:50.561,0.148,0.065,0.996
10:42:50.756,0.107,0.045,0.97
10:42:50.951,0.103,0.087,0.979
10:42:51.147,0.081,0.071,0.983
10:42:51.341,0.095,0.096,0.999
10:42:51.536,-0.043,0.226,0.944
10:42:51.732,-0.038,0.287,0.937
10:42:51.927,0.002,0.284,0.982
10:42:52.122,0.088,0.387,0.99
10:42:52.317,-0.092,0.231,1.025
10:42:52.512,-0.21,0.408,0.862
10:42:52.707,0.215,0.189,0.969
10:42:52.903,0.075,-0.115,1.091
10:42:53.098,0.026,-0.076,1.095
10:42:53.292,-0.044,-0.189,0.946
10:42:53.487,0.211,-0.133,0.832
10:42:53.732,-0.015,-0.242,1.027
10:42:53.924,0.003,-0.248,0.977
10:42:54.121,-0.076,0.07,1.048
10:42:54.317,-0.121,0.119,0.984
10:42:54.510,-0.628,-0.257,0.817
10:42:54.706,-0.133,0.326,0.972
10:42:54.901,-0.404,0.11,0.866
10:42:55.096,-0.357,0.113,0.86
10:42:55.291,-0.498,0.16,0.916
10:42:55.484,-0.486,0.347,1.174
10:42:55.680,-0.145,0.083,1.007
10:42:55.876,-0.229,0.166,0.962
10:42:56.071,0.122,-0.071,0.892
10:42:56.265,0.013,0.061,0.977
10:42:56.460,-0.175,0.042,1.032
10:42:56.655,-0.585,0.464,0.791
10:42:56.850,-0.589,0.619,0.612
10:42:57.045,-0.54,0.482,0.565
10:42:57.239,-0.505,0.568,0.574
10:42:57.435,-0.442,0.578,0.539
10:42:57.630,-0.533,1.041,0.108
10:42:57.825,-0.745,0.386,0.581
10:42:58.069,0.174,0.956,0.079
10:42:58.264,0.388,0.898,-0.057
10:42:58.458,0.356,0.902,-0.003
10:42:58.654,0.5,1.099,-0.081
10:42:58.849,0.466,0.866,-0.057
10:42:59.044,0.503,0.828,0.114
10:42:59.238,-0.108,0.898,-0.716
10:42:59.433,0.328,0.954,-0.105
10:42:59.630,0.187,1.02,0.027
10:42:59.824,0.208,0.988,0.069
10:43:00.019,0.333,0.923,0.028
10:43:00.214,0.071,0.93,0.238
10:43:00.408,-0.477,0.843,0.875
10:43:00.603,-0.237,-0.25,0.795
10:43:00.800,-0.077,-0.218,0.846
10:43:00.993,-0.061,-0.423,0.958
10:43:01.189,0.084,-0.214,0.98
10:43:01.384,0.082,-0.25,1.033
10:43:01.579,0.102,-0.189,0.961
10:43:01.775,0.165,-0.113,0.973
10:43:01.970,-0.243,-0.824,0.9
10:43:02.165,0.048,-0.491,0.845
10:43:02.410,0.026,-0.659,0.976
10:43:02.603,-0.059,-0.918,0.431
10:43:02.799,-0.015,-0.96,0.436
10:43:02.992,-0.512,-0.11,0.753
10:43:03.188,-0.034,0.98,0.894
10:43:03.384,-0.033,1.124,0.508
10:43:03.579,-0.137,0.83,0.415
10:43:03.774,-0.015,0.596,0.749
10:43:03.969,0.141,0.226,0.986
10:43:04.163,0.032,-0.063,0.84
10:43:04.359,0.12,-0.256,1.006
10:43:04.553,0.396,-0.167,1.241
10:43:04.748,0.053,-0.386,1.068
10:43:04.943,-0.163,-0.308,-0.564
10:43:05.137,-0.13,-0.769,0.245
10:43:05.332,0.731,-0.433,1.115
10:43:05.528,-0.418,-0.552,0.002
10:43:05.724,-0.643,-0.314,-1.069
10:43:05.918,-0.104,-0.706,0.617
10:43:06.113,0.026,-0.268,1.166
10:43:06.307,-0.196,-0.163,0.913
10:43:06.502,-0.017,-0.228,0.979
10:43:06.747,-0.054,0.166,0.553
10:43:06.942,-0.551,0.849,0.751
10:43:07.137,-0.637,-0.269,0.786
10:43:07.332,-0.494,-0.641,0.573
10:43:07.526,-0.579,-0.53,0.716
10:43:07.721,-0.498,-0.431,0.791
10:43:07.917,-0.584,-0.347,0.798
10:43:08.111,-0.395,0.004,0.952
10:43:08.307,-0.267,0.297,0.931
10:43:08.502,-0.372,0.305,0.763
10:43:08.697,-0.089,1.036,0.874
10:43:08.891,-0.19,0.721,0.549
10:43:09.087,-0.376,0.79,0.457
10:43:09.282,-0.391,0.809,0.425
10:43:09.477,-0.402,0.614,0.419
10:43:09.672,-0.213,0.951,0.436
10:43:09.866,-0.25,0.794,0.566
10:43:10.062,-0.418,0.908,1.05
10:43:10.257,-0.377,-0.775,0.359
10:43:10.453,-0.265,-0.625,0.673
10:43:10.648,-0.25,-0.031,0.427
10:43:10.843,-0.037,0.873,0.302
10:43:11.085,-0.116,0.894,0.247
10:43:11.281,-0.369,0.73,0.26
10:43:11.476,-0.407,0.909,0.381
10:43:11.670,-0.352,0.807,0.361
10:43:11.866,-0.321,0.797,0.381
10:43:12.061,-0.454,0.837,0.273
10:43:12.257,-0.247,0.715,0.371
10:43:12.452,-0.508,0.83,0.547
10:43:12.647,-0.276,0.8,0.452
10:43:12.842,0.058,0.457,0.522
10:43:13.036,-0.323,1.027,0.489
10:43:13.230,-0.24,0.687,0.323
10:43:13.426,-0.261,1.114,0.918
10:43:13.621,-1.077,-0.557,-0.695
10:43:13.816,-0.64,-0.328,-0.744
10:43:14.010,-0.715,-0.128,-0.506
10:43:14.205,-0.45,-0.611,-0.669
10:43:14.401,-0.603,-0.589,-0.756
10:43:14.596,-0.298,0.158,0.114
10:43:14.790,-0.809,1.048,0.725
10:43:14.985,-0.33,-0.096,-0.069
10:43:15.180,-0.838,-0.68,-0.879
10:43:15.424,-0.813,-0.394,-0.689
10:43:15.618,-0.717,-0.607,-0.565
10:43:15.813,-0.753,-0.415,-0.427
10:43:16.008,-0.823,-0.419,-0.435
10:43:16.206,-0.914,-0.3,-0.367
10:43:16.402,-0.661,0.988,0.421
10:43:16.597,-0.721,0.601,0.099
10:43:16.791,-0.679,0.567,0.248
10:43:16.985,-0.971,0.499,0.021
10:43:17.181,-0.512,0.38,0.241
10:43:17.376,-0.524,0.292,-0.136
10:43:17.570,-0.777,0.416,-0.302
10:43:17.765,-0.73,0.4,-0.457
10:43:17.961,-0.732,0.57,-0.365
10:43:18.155,-0.697,0.537,-0.416
10:43:18.349,-0.703,0.565,-0.416
10:43:18.545,-0.722,0.575,-0.4
10:43:18.740,-0.71,0.562,-0.418
10:43:18.936,-0.742,0.505,-0.491
10:43:19.131,-0.662,0.453,-0.575
10:43:19.324,-0.693,0.482,-0.507
10:43:19.523,-0.664,0.513,-0.524
10:43:19.804,-0.673,0.512,-0.508
10:43:19.959,-0.654,0.492,-0.519
10:43:20.155,-0.664,0.501,-0.538
10:43:20.350,-0.664,0.485,-0.545
10:43:20.545,-0.672,0.501,-0.549
10:43:20.739,-0.675,0.495,-0.551
10:43:20.934,-0.667,0.473,-0.548
10:43:21.128,-0.696,0.516,-0.586
10:43:21.322,-0.635,0.632,-0.456
10:43:21.517,-0.338,0.674,0.35
10:43:21.711,-0.261,0.672,0.823
10:43:21.907,-0.301,0.375,0.82
10:43:22.103,-0.062,0.226,0.833
10:43:22.298,-0.167,0.084,0.913
10:43:22.493,-0.038,0.023,1.0
10:43:22.688,-0.164,0.093,0.996
10:43:22.883,-0.396,0.407,0.968
10:43:23.079,-0.127,0.468,0.959
10:43:23.273,-0.236,0.604,0.483
10:43:23.467,-0.079,0.325,0.744
10:43:23.665,0.076,-0.045,1.094
10:43:23.858,0.114,0.128,1.012
10:43:24.104,0.095,0.109,1.185
10:43:24.298,0.156,0.106,0.959
10:43:24.493,0.111,0.105,1.013
10:43:24.688,0.152,0.112,0.956
10:43:24.881,0.148,0.14,1.014
10:43:25.078,0.168,0.06,1.067
10:43:25.273,0.007,0.163,0.898
10:43:25.468,-0.185,0.359,1.033
10:43:25.662,-0.234,-0.151,0.862
10:43:25.858,-0.172,-0.355,1.047
10:43:26.053,-0.254,-0.383,0.863
10:43:26.247,-0.368,0.987,0.468
10:43:26.443,0.045,0.88,0.286
10:43:26.638,-0.324,1.006,0.324
10:43:26.832,-0.505,0.732,0.448
10:43:27.027,-0.261,0.834,0.422
10:43:27.223,-0.038,0.879,0.362
10:43:27.417,-0.193,0.743,0.695
10:43:27.612,-0.19,0.396,0.847
10:43:27.807,-0.206,0.434,0.933
10:43:28.001,-0.054,0.651,0.789
10:43:28.196,0.021,0.819,0.796
10:43:28.442,0.074,0.721,0.877
10:43:28.636,-0.453,0.75,0.347
10:43:28.830,-0.061,0.731,0.534
10:43:29.026,0.273,0.532,0.81
10:43:29.221,-0.146,0.667,0.576
10:43:29.415,-0.427,0.886,0.389
10:43:29.611,-0.571,0.741,0.361
10:43:29.805,-0.608,0.672,0.307
10:43:30.000,-0.657,0.717,0.342
10:43:30.196,-0.624,0.562,0.253
10:43:30.390,-0.659,0.706,0.372
10:43:30.584,-0.682,0.63,0.301
10:43:30.779,-0.658,0.667,0.347
10:43:30.975,-0.114,0.601,0.646
10:43:31.170,0.061,0.35,0.943
10:43:31.365,0.184,0.263,0.908
10:43:31.560,0.165,0.189,0.968
10:43:31.756,0.161,0.35,0.941
10:43:31.950,-0.083,0.515,0.821
10:43:32.147,-0.123,0.655,0.698
10:43:32.342,-0.377,0.933,0.495
10:43:32.536,-0.351,0.782,0.389
10:43:32.781,-0.316,0.846,0.385
10:43:32.974,-0.312,0.862,0.416
10:43:33.170,-0.231,0.915,0.481
10:43:33.365,-0.395,0.875,0.352
10:43:33.559,-0.538,0.712,0.421
10:43:33.756,0.349,0.858,0.905
10:43:33.951,-0.154,0.63,0.518
10:43:34.145,-0.215,0.871,0.576
10:43:34.340,0.15,0.92,0.274
10:43:34.536,0.023,0.804,0.248
10:43:34.731,0.159,0.965,0.082
10:43:34.925,0.463,0.982,-0.339
10:43:35.120,0.169,0.953,-0.099
10:43:35.315,0.224,0.976,-0.207
10:43:35.510,0.244,0.956,-0.24
10:43:35.706,0.196,0.976,-0.122
10:43:35.901,0.2,0.87,-0.142
10:43:36.094,0.184,0.931,-0.162
10:43:36.289,0.201,0.952,-0.175
10:43:36.484,0.434,1.663,-0.194
10:43:36.679,0.143,0.531,0.332
10:43:36.875,0.431,0.786,0.297
10:43:37.119,0.475,0.773,0.271
10:43:37.315,0.426,0.733,0.344
10:43:37.508,0.476,0.518,0.166
10:43:37.703,-0.194,1.304,-0.531
10:43:37.898,-0.347,1.03,-0.749
10:43:38.093,-0.458,0.583,-0.739
10:43:38.288,-0.482,0.302,-0.753
10:43:38.483,-0.592,0.402,-0.602
10:43:38.679,-0.284,0.295,-0.744
10:43:38.873,-0.466,0.505,-0.603
10:43:39.068,-0.541,0.645,-0.497
10:43:39.264,-0.552,0.698,-0.421
10:43:39.458,-0.484,0.729,-0.424
10:43:39.654,-0.451,0.871,-0.352
10:43:39.848,-0.35,0.822,-0.187
10:43:40.043,-0.732,0.751,0.128
10:43:40.240,-0.572,-0.08,0.77
10:43:40.435,-0.313,-0.168,1.0
10:43:40.628,-0.11,-0.009,1.042
10:43:40.824,0.053,-0.036,0.987
10:43:41.020,0.171,0.062,0.945
10:43:41.213,0.387,0.155,0.875
10:43:41.457,0.197,0.123,0.977
10:43:41.652,-0.462,-0.006,0.81
10:43:41.847,-0.347,-0.014,0.959
10:43:42.041,0.471,0.039,0.961
10:43:42.237,-0.26,0.295,0.94
10:43:42.433,-0.717,-0.041,0.694
10:43:42.628,-0.278,0.349,0.835
10:43:42.824,-0.432,0.474,0.997
10:43:43.019,-0.25,0.406,0.791
10:43:43.213,-0.233,0.618,0.882
10:43:43.408,-0.27,0.479,0.773
10:43:43.603,-0.298,0.496,0.803
10:43:43.798,-0.29,0.478,0.796
10:43:43.992,-0.288,0.49,0.794
10:43:44.186,-0.29,0.528,0.816
10:43:44.381,-0.291,0.5,0.815
10:43:44.576,-0.292,0.499,0.813
10:43:44.772,-0.285,0.507,0.812
10:43:44.966,-0.284,0.5,0.816
10:43:45.161,-0.278,0.505,0.81
10:43:45.357,-0.262,0.508,0.812
10:43:45.551,-0.276,0.494,0.809
10:43:45.795,-0.253,0.506,0.828
10:43:45.991,-0.252,0.496,0.817
10:43:46.186,-0.272,0.503,0.819
10:43:46.381,-0.261,0.495,0.804
10:43:46.575,-0.25,0.499,0.812
10:43:46.773,-0.242,0.514,0.82
10:43:46.966,-0.263,0.503,0.82
10:43:47.161,-0.249,0.5,0.818
10:43:47.356,-0.248,0.503,0.828
10:43:47.551,-0.239,0.504,0.814
10:43:47.745,-0.258,0.501,0.822
10:43:47.941,-0.246,0.505,0.833
10:43:48.136,-0.261,0.501,0.825
10:43:48.331,-0.253,0.501,0.812
10:43:48.527,-0.243,0.499,0.828
10:43:48.722,-0.247,0.517,0.836
10:43:48.917,-0.264,0.501,0.802
10:43:49.111,-0.232,0.503,0.822
10:43:49.306,-0.244,0.504,0.817
10:43:49.501,-0.252,0.511,0.812
10:43:49.695,-0.239,0.496,0.809
10:43:49.890,-0.249,0.507,0.815
10:43:50.135,-0.231,0.51,0.809
10:43:50.331,-0.247,0.513,0.82
10:43:50.523,-0.245,0.52,0.817
10:43:50.720,-0.252,0.509,0.801
10:43:50.914,-0.251,0.508,0.808
10:43:51.108,-0.248,0.52,0.811
10:43:51.304,-0.247,0.498,0.806
10:43:51.499,-0.256,0.525,0.826
10:43:51.696,-0.232,0.517,0.818
10:43:51.890,-0.272,0.514,0.814
10:43:52.085,-0.235,0.506,0.823
10:43:52.280,-0.235,0.515,0.879
10:43:52.476,-0.216,0.38,0.964
10:43:52.669,-0.03,0.151,0.949
10:43:52.867,0.107,0.007,1.005
10:43:53.061,0.265,-0.054,1.016
10:43:53.255,0.087,-0.044,1.006
10:43:53.450,-0.008,0.036,0.947
10:43:53.644,0.006,-0.029,0.98
10:43:53.839,-0.068,0.044,1.019
10:43:54.035,0.121,-0.028,1.003
10:43:54.230,0.243,-0.009,0.985
10:43:54.474,0.178,-0.102,0.89
10:43:54.668,0.053,0.057,1.018
10:43:54.864,0.1,0.062,1.022
10:43:55.058,0.032,0.032,0.943
10:43:55.253,-0.038,0.152,0.996
10:43:55.448,-0.017,0.121,1.02
10:43:55.643,-0.015,0.161,0.964
10:43:55.838,-0.024,0.155,0.997
10:43:56.034,0.269,-0.082,0.779
10:43:56.228,0.268,-0.117,0.952
10:43:56.424,0.419,-0.231,0.967
10:43:56.619,0.492,0.233,0.875
10:43:56.814,0.578,0.111,0.815
10:43:57.009,0.516,0.114,0.83
10:43:57.203,0.52,0.094,0.875
10:43:57.398,0.526,0.088,0.87
10:43:57.593,0.525,0.113,0.832
10:43:57.789,0.53,0.117,0.833
10:43:57.985,0.526,0.076,0.847
10:43:58.180,0.549,0.07,0.841
10:43:58.373,0.573,0.095,0.829
10:43:58.567,0.524,0.091,0.868
10:43:58.811,0.538,0.107,0.832
10:43:59.006,0.53,0.091,0.858
10:43:59.203,0.65,0.089,0.745
10:43:59.399,0.446,0.215,0.886
10:43:59.593,0.876,0.158,0.466
10:43:59.789,0.392,0.194,0.786
10:43:59.983,0.346,0.152,0.949
10:44:00.179,0.07,-0.042,0.97
10:44:00.374,-0.018,-0.001,0.971
10:44:00.568,0.035,-0.063,0.97
10:44:00.762,0.146,-0.019,1.02
10:44:00.957,0.156,-0.012,1.105
10:44:01.153,0.044,-0.048,0.997
10:44:01.348,0.037,0.019,1.02
10:44:01.544,0.082,0.005,0.983
10:44:01.737,0.145,0.073,0.996
10:44:01.933,0.179,0.081,0.985
10:44:02.128,0.165,0.086,0.99
10:44:02.324,0.149,0.086,1.005
10:44:02.518,0.062,0.117,1.014
10:44:02.713,0.058,0.084,1.004
10:44:02.908,0.241,0.205,1.016
10:44:03.153,0.083,0.095,1.06
10:44:03.346,0.063,0.202,0.979
10:44:03.543,0.042,0.273,0.964
10:44:03.737,0.036,0.284,0.973
10:44:03.931,0.091,0.247,0.993
10:44:04.126,0.348,0.121,0.936
10:44:04.322,0.218,0.093,0.929
10:44:04.516,-0.015,0.213,1.011
10:44:04.711,-0.005,0.088,0.95
10:44:04.906,0.07,0.116,0.974
10:44:05.101,0.133,0.106,0.986
10:44:05.296,0.197,0.056,0.98
10:44:05.492,0.113,-0.002,0.959
10:44:05.686,0.068,-0.012,1.021
10:44:05.882,0.127,0.051,1.012
10:44:06.076,0.101,0.053,0.996
10:44:06.272,0.175,0.051,0.996
10:44:06.466,0.142,0.063,0.981
10:44:06.662,0.15,0.062,0.991
10:44:06.856,0.164,0.057,0.979
10:44:07.052,0.16,0.052,0.974
10:44:23.637,1.999,0.806,1.424
10:44:23.734,-0.254,-0.004,0.97
10:44:23.930,-0.251,-0.013,0.965
10:44:24.124,-0.253,-0.007,0.969
10:44:24.320,-0.242,-0.001,0.96
10:44:24.515,-0.269,-0.005,0.965
10:44:24.711,-0.241,-0.02,0.96
10:44:24.904,-0.248,-0.02,0.953
10:44:25.099,-0.262,0.005,0.971
10:44:25.295,-0.257,0.002,0.974
10:44:25.491,-0.248,-0.002,0.974
10:44:25.685,-0.257,0.002,0.975
10:44:25.929,-0.227,-0.015,0.995
10:44:26.123,-0.25,-0.027,0.954
10:44:26.319,-0.225,-0.011,0.981
10:44:26.513,-0.234,-0.017,0.967
10:44:26.708,-0.274,0.01,0.949
10:44:26.904,-0.232,-0.014,0.994
10:44:27.098,-0.23,0.016,0.957
10:44:27.293,-0.23,-0.015,0.971
10:44:27.488,-0.213,-0.017,0.987
10:44:27.683,-0.221,-0.018,0.984
10:44:27.879,-0.229,-0.005,0.971
10:44:28.074,-0.235,-0.014,0.975
10:44:28.269,-0.25,0.01,0.986
10:44:28.463,-0.259,0.0,0.973
10:44:28.658,-0.225,-0.012,0.97
10:44:28.854,-0.246,-0.007,0.968
10:44:29.050,-0.233,-0.011,0.971
10:44:29.244,-0.219,0.0,0.966
10:44:29.439,-0.229,-0.012,1.0
10:44:29.634,-0.226,-0.008,0.982
10:44:29.829,-0.558,0.102,1.149
10:44:30.023,-0.131,0.123,0.742
10:44:30.269,-0.647,0.487,0.746
10:44:30.463,-0.025,0.289,0.569
10:44:30.659,-0.746,0.764,0.403
10:44:30.855,-0.331,0.377,0.952
10:44:31.048,-0.431,0.377,0.825
10:44:31.242,-0.403,0.38,0.855
10:44:31.437,-0.395,0.479,0.797
10:44:31.633,-0.393,0.459,0.771
10:44:31.829,-0.386,0.438,0.811
10:44:32.023,-0.619,0.421,1.123
10:44:32.220,-0.133,0.465,0.496
10:44:32.413,-0.631,0.682,0.775
10:44:32.609,-0.366,0.156,0.718
10:44:32.804,-0.406,0.268,0.842
10:44:32.998,-0.039,-0.154,1.03
10:44:33.194,-0.21,-0.043,0.989
10:44:33.388,-0.554,0.0,0.637
10:44:33.583,0.056,1.201,-0.14
10:44:33.778,0.407,1.055,-0.262
10:44:33.973,0.562,0.661,-0.091
10:44:34.172,0.037,0.916,-0.165
10:44:34.363,-0.39,0.155,0.512
10:44:34.608,-0.448,0.386,0.348
10:44:34.802,0.37,0.705,-0.079
10:44:34.997,0.65,0.747,-0.184
10:44:35.193,0.184,-0.601,0.323
10:44:35.387,-0.579,0.6,0.462
10:44:35.582,-0.684,0.393,0.651
10:44:35.777,-0.427,0.092,0.72
10:44:35.972,-0.763,0.209,0.793
10:44:36.167,-0.688,0.156,0.724
10:44:36.362,-0.544,0.161,0.848
10:44:36.557,-0.043,-0.149,1.059
10:44:36.752,0.2,0.089,1.057
10:44:36.947,-0.015,-0.318,1.283
10:44:37.142,-0.072,0.187,0.834
10:44:37.337,0.051,-0.097,1.153
10:44:37.532,0.021,-0.299,0.936
10:44:37.727,0.112,-0.336,0.992
10:44:37.922,0.134,-0.212,0.984
10:44:38.119,0.246,0.013,0.522
10:44:38.313,0.228,-0.129,1.39
10:44:38.507,0.658,-0.387,0.63
10:44:38.703,0.548,-0.563,1.075
10:44:38.947,0.265,-0.227,1.54
10:44:39.142,0.087,-0.053,0.671
10:44:39.336,-0.007,0.045,1.028
10:44:39.531,-0.041,-0.376,0.986
10:44:39.727,-0.164,-0.34,0.988
10:44:39.923,-0.073,-0.265,0.956
10:44:40.116,0.062,-0.236,1.048
10:44:40.312,-0.062,-0.298,0.962
10:44:40.507,-0.062,-0.285,0.986
10:44:40.701,-0.055,-0.294,0.995
10:44:40.897,-0.093,-0.285,0.883
10:44:41.093,-0.013,-0.357,0.986
10:44:41.286,-0.012,-0.246,0.979
10:44:41.482,-0.129,-0.235,0.998
10:44:41.676,-0.16,-0.422,1.138
10:44:41.871,-0.154,-0.467,0.724
10:44:42.067,-0.146,-0.702,0.824
10:44:42.261,0.121,-0.399,1.158
10:44:42.456,0.082,-0.063,1.023
10:44:42.651,-0.269,-0.263,1.511
10:44:42.845,-0.225,-0.169,0.953
10:44:43.044,-0.188,-0.147,0.939
10:44:43.285,-0.204,-0.174,0.976
10:44:43.480,-0.21,-0.173,0.966
10:44:43.675,-0.209,-0.179,0.957
10:44:43.869,-0.192,-0.15,0.987
10:44:44.065,-0.198,-0.154,0.966
10:44:44.260,-0.196,-0.163,0.968
10:44:44.454,-0.187,-0.168,0.974
10:44:44.649,-0.196,-0.164,0.986
10:44:44.844,-0.209,-0.167,0.958
10:44:45.041,-0.121,-0.175,0.962
10:44:45.235,-0.187,-0.125,0.985
10:44:45.430,-0.149,-0.166,0.991
10:44:45.625,-0.162,-0.166,0.979
10:44:45.820,-0.148,-0.169,0.965
10:44:46.015,-0.164,-0.129,0.985
10:44:46.210,-0.161,-0.152,0.976
10:44:46.405,-0.147,-0.186,0.975
10:44:46.600,-0.14,-0.155,0.976
10:44:46.796,-0.15,-0.157,0.971
10:44:46.991,-0.159,-0.17,0.982
10:44:47.185,-0.146,-0.188,0.967
10:44:47.381,-0.159,-0.154,0.98
10:44:47.625,-0.143,-0.141,0.975
10:44:47.819,-0.144,-0.151,0.98
10:44:48.015,-0.149,-0.163,0.97
10:44:48.210,-0.151,-0.158,0.96
10:44:48.403,-0.142,-0.157,0.98
10:44:48.600,-0.154,-0.166,0.974
10:44:48.795,-0.153,-0.162,0.982
10:44:48.989,-0.154,-0.165,0.985
10:44:49.184,-0.154,-0.149,0.985
10:44:49.380,-0.137,-0.157,0.97
10:44:49.575,-0.149,-0.166,0.979
10:44:49.769,-0.148,-0.165,0.977
10:44:49.963,-0.15,-0.164,0.969
10:44:50.160,-0.162,-0.161,0.971
10:44:50.354,-0.129,-0.147,0.97
10:44:50.549,-0.169,-0.146,0.979
10:44:50.745,-0.154,-0.157,0.977
10:44:50.937,-0.146,-0.142,0.985
10:44:51.133,-0.148,-0.154,0.984
10:44:51.328,-0.163,-0.166,0.983
10:44:51.523,-0.161,-0.151,0.986
10:44:51.718,-0.153,-0.16,0.968
10:44:51.961,-0.141,-0.163,0.98
10:44:52.156,-0.15,-0.15,0.972
10:44:52.351,-0.158,-0.162,0.969
10:44:52.546,-0.152,-0.168,0.976
10:44:52.741,-0.142,-0.152,0.983
10:44:52.936,-0.188,-0.154,0.957
10:44:53.131,-0.138,-0.178,0.97
10:44:53.327,-0.141,-0.166,0.988
10:44:53.522,-0.153,-0.156,0.97
10:44:53.717,-0.135,-0.149,0.969
10:44:53.911,-0.141,-0.154,0.987
10:44:54.106,-0.15,-0.152,0.98
10:44:54.301,-0.155,-0.138,0.984
10:44:54.497,-0.162,-0.142,0.979
10:44:54.694,-0.149,-0.172,0.973
10:44:54.889,-0.152,-0.142,0.981
10:44:55.084,-0.147,-0.167,0.973
10:44:55.278,-0.169,-0.159,0.984
10:44:55.474,-0.165,-0.163,0.975
10:44:55.669,-0.16,-0.154,0.981
10:44:55.863,-0.153,-0.136,0.982
10:44:56.059,-0.114,-0.146,0.997
10:44:56.302,-0.158,-0.17,0.964
10:44:56.495,-0.143,-0.15,0.987
10:44:56.691,-0.161,-0.195,0.968
10:44:56.886,-0.165,-0.179,0.973
10:44:57.082,-0.13,-0.143,0.986
10:44:57.278,-0.165,-0.158,0.97
10:44:57.472,-0.136,-0.142,0.975
10:44:57.666,-0.152,-0.152,0.979
10:44:57.862,-0.15,-0.162,0.979
10:44:58.057,-0.168,-0.152,0.975
10:44:58.250,-0.128,-0.154,0.988
10:44:58.445,-0.153,-0.153,0.977
10:44:58.640,-0.148,-0.155,0.978
10:44:58.837,-0.172,-0.162,0.97
10:44:59.033,-0.148,-0.137,0.985
10:44:59.227,-0.181,-0.153,0.979
10:44:59.422,-0.144,-0.156,0.986
10:44:59.617,-0.149,-0.126,0.985
10:44:59.813,-0.147,-0.139,0.978
10:45:00.007,-0.173,-0.152,0.975
10:45:00.252,-0.129,-0.158,0.996
10:45:00.399,-0.199,-0.151,0.982
10:45:00.641,-0.147,-0.146,0.987
10:45:00.837,-0.149,-0.146,0.98
10:45:01.030,-0.156,-0.182,0.986
10:45:01.227,-0.152,-0.172,0.982
10:45:01.422,-0.153,-0.159,0.983
10:45:01.616,-0.16,-0.15,0.967
10:45:01.812,-0.152,-0.151,0.982
10:45:02.053,-0.156,-0.166,0.979
10:45:02.201,-0.161,-0.166,0.985
10:45:02.397,-0.146,-0.157,0.976
10:45:02.592,-0.14,-0.16,0.982
10:45:02.785,-0.147,-0.175,0.974
10:45:02.982,-0.141,-0.171,0.984
10:45:03.175,-0.155,-0.153,0.979
10:45:03.371,-0.15,-0.159,0.989
10:45:03.566,-0.153,-0.156,0.984
10:45:03.761,-0.147,-0.162,0.971
10:45:03.954,-0.163,-0.155,0.981
10:45:04.149,-0.149,-0.164,0.98
10:45:04.345,-0.161,-0.166,0.975
10:45:04.541,-0.143,-0.164,0.979
10:45:04.734,-0.154,-0.166,0.986
10:45:04.978,-0.156,-0.167,0.973
10:45:05.173,-0.153,-0.164,0.992
10:45:05.368,-0.148,-0.158,0.983
10:45:05.564,-0.131,-0.158,0.968
10:45:05.759,-0.147,-0.156,0.981
10:45:05.954,-0.161,-0.158,0.981
10:45:06.151,-0.159,-0.171,0.977
10:45:06.345,-0.167,-0.163,0.987
10:45:06.539,-0.144,-0.163,0.976
10:45:06.735,-0.147,-0.165,0.982
10:45:06.929,-0.156,-0.149,0.967
10:45:07.124,-0.161,-0.153,0.975
10:45:07.319,-0.141,-0.158,0.989
10:45:07.514,-0.16,-0.153,0.963
10:45:07.709,-0.118,-0.173,0.992
10:45:07.904,-0.168,-0.147,0.984
10:45:08.099,-0.299,-0.28,1.068
10:45:08.294,0.005,0.439,1.071
10:45:08.489,-0.27,0.61,0.604
10:45:08.684,0.053,1.011,0.364
10:45:08.879,0.139,0.792,-0.002
10:45:09.075,0.111,0.671,0.232
10:45:09.318,-0.155,0.62,0.728
10:45:09.513,0.104,0.554,0.8
10:45:09.708,0.187,0.186,0.794
10:45:09.902,0.018,0.105,1.092
10:45:10.098,-0.132,0.021,0.924
10:45:10.293,-0.54,0.111,0.745
10:45:10.489,-0.382,-0.047,0.938
10:45:10.683,-0.189,-0.329,0.768
10:45:10.878,-0.051,-0.163,1.042
10:45:11.073,-0.091,-0.226,1.051
10:45:11.269,0.17,-0.27,0.815
10:45:11.464,0.02,-0.354,1.041
10:45:11.659,-0.135,-0.205,0.763
10:45:11.854,0.014,-0.23,0.95
10:45:12.049,-0.101,-0.226,0.977
10:45:12.245,-0.208,-0.393,0.949
10:45:12.439,-0.093,-0.394,0.922
10:45:12.633,-0.063,-0.287,0.79
10:45:12.829,-0.236,-0.263,0.908
10:45:13.023,-0.347,-0.295,1.002
10:45:13.218,-0.212,-0.275,0.927
10:45:13.413,-0.184,-0.25,0.975
10:45:13.658,-0.081,-0.24,1.004
10:45:13.852,0.012,-0.211,0.965
10:45:14.046,0.084,-0.266,0.892
10:45:14.243,0.274,-0.229,0.743
10:45:14.436,0.1,-0.291,0.949
10:45:14.632,-0.757,-0.229,0.712
10:45:14.828,-1.052,-0.306,-0.648
10:45:15.023,-0.843,-0.444,0.191
10:45:15.217,-0.735,-0.837,0.348
10:45:15.413,-0.003,-0.26,1.015
10:45:15.608,0.439,-0.282,0.816
10:45:15.802,0.271,-0.286,0.972
10:45:15.997,-0.975,-0.316,0.293
10:45:16.193,-1.014,-0.266,0.476
10:45:16.387,-0.888,-0.209,0.436
10:45:16.583,-0.407,-0.235,0.926
10:45:16.777,0.264,-0.142,0.856
10:45:16.972,0.529,-0.259,0.734
10:45:17.166,0.396,-0.33,0.945
10:45:17.361,0.302,-0.281,0.921
10:45:17.557,-0.961,-0.147,0.574
10:45:17.752,-0.921,-0.125,0.528
10:45:17.996,-0.933,-0.119,0.439
10:45:18.191,-0.388,-0.142,0.854
10:45:18.386,0.064,-0.31,0.915
10:45:18.580,0.149,-0.215,0.993
10:45:18.776,0.002,-0.351,0.995
10:45:18.970,0.04,-0.125,0.973
10:45:19.165,0.085,0.417,0.935
10:45:19.360,0.0,0.337,0.898
10:45:19.555,-0.063,0.46,0.934
10:45:19.751,-0.125,0.124,0.915
10:45:19.946,-0.155,0.142,0.954
10:45:20.141,-0.336,0.289,0.869
11:02:24.892,-0.168,-0.16,0.982
11:02:25.088,-0.154,-0.163,0.987
11:02:25.285,-0.17,-0.166,0.985
11:02:25.479,-0.182,-0.16,0.993
11:02:25.672,-0.479,-0.137,1.003
11:02:25.869,-0.273,-0.077,0.942
11:02:26.063,-0.082,-0.001,1.005
11:02:26.258,0.273,0.115,1.085
11:02:26.502,0.272,0.241,0.507
11:02:26.699,0.218,0.466,0.478
11:02:26.892,0.083,0.505,1.143
11:02:27.087,-0.168,0.183,0.548
11:02:27.282,-0.189,0.119,1.662
11:02:27.477,-0.171,-0.203,1.241
11:02:27.673,-0.048,0.041,1.023
11:02:27.867,-0.28,0.058,0.968
11:02:28.062,-0.206,0.077,0.967
11:02:28.271,-0.239,0.052,0.978
11:02:28.453,-0.21,0.104,0.98
11:02:28.647,-0.279,0.086,0.947
11:02:28.843,-0.211,0.064,1.009
11:02:29.038,-0.222,0.079,0.975
11:02:29.231,-0.241,0.119,0.945
11:02:29.426,-0.214,0.076,0.975
11:02:29.621,-0.206,0.07,0.975
11:02:29.816,-0.191,0.08,0.977
11:02:30.012,-0.186,0.081,0.979
11:02:30.206,-0.206,0.098,0.959
11:02:30.401,-0.211,0.092,0.958
11:02:30.597,-0.234,0.086,0.976
11:02:30.841,-0.23,0.079,0.979
11:02:31.036,-0.231,0.08,0.975
11:02:31.231,-0.211,0.086,0.973
11:02:31.425,-0.219,0.063,0.97
11:02:31.620,-0.208,0.051,1.0
11:02:31.815,-0.207,0.091,0.988
11:02:32.011,-0.203,0.091,0.962
11:02:32.206,-0.217,0.079,1.005
11:02:32.401,-0.203,0.069,0.959
11:02:32.595,-0.224,0.097,0.977
11:02:32.790,-0.191,0.105,0.998
11:02:32.985,-0.255,0.092,0.964
11:02:33.181,-0.253,0.103,0.971
11:02:33.376,-0.212,0.116,0.985
11:02:33.571,-0.229,0.066,0.978
11:02:33.766,-0.189,0.084,0.964
11:02:33.961,-0.218,0.091,0.981
11:02:34.155,-0.213,0.073,0.99
11:02:34.352,-0.214,0.082,0.982
11:02:34.546,-0.234,0.078,0.976
11:02:34.743,-0.221,0.078,0.972
11:02:34.938,-0.211,0.082,0.977
11:02:35.180,-0.2,0.081,0.97
11:02:35.376,-0.205,0.082,0.976
11:02:35.571,-0.213,0.089,0.962
11:02:35.766,-0.195,0.062,1.009
11:02:35.960,-0.207,0.082,0.968
11:02:36.157,-0.21,0.081,0.973
11:02:36.350,-0.189,0.105,0.961
11:02:36.545,-0.196,0.084,0.963
11:02:36.741,-0.195,0.08,1.002
11:02:36.936,-0.201,0.08,0.97
11:02:37.131,-0.213,0.063,0.989
11:02:37.326,-0.21,0.091,0.977
11:02:37.521,-0.203,0.079,0.961
11:02:37.715,-0.202,0.082,0.981
11:02:37.910,-0.207,0.083,0.978
11:02:38.107,-0.203,0.081,0.986
11:02:38.302,-0.202,0.089,0.981
11:02:38.495,-0.204,0.099,0.958
11:02:38.690,-0.21,0.108,0.976
11:02:38.885,-0.224,0.104,0.973
11:02:39.080,-0.209,0.095,0.966
11:02:39.274,-0.227,0.09,0.971
11:02:39.518,-0.211,0.092,0.954
11:02:39.714,-0.224,0.081,0.985
11:02:39.910,-0.208,0.079,0.979
11:02:40.104,-0.199,0.081,0.973
11:02:40.299,-0.229,0.074,0.975
11:02:40.493,-0.215,0.084,0.981
11:02:40.688,-0.213,0.098,0.959
11:02:40.883,-0.224,0.07,0.991
11:02:41.080,-0.245,0.09,0.975
11:02:41.274,-0.217,0.09,0.99
11:02:41.469,-0.218,0.09,0.976
11:02:41.663,-0.214,0.075,0.986
11:02:41.859,-0.208,0.08,0.971
11:02:42.054,-0.211,0.084,0.973
11:02:42.249,-0.196,0.079,0.983
11:02:42.444,-0.207,0.081,0.955
11:02:42.639,-0.218,0.084,0.985
11:02:42.834,-0.217,0.084,0.976
11:02:43.029,-0.169,0.101,0.962
11:02:43.224,-0.152,0.052,1.009
11:02:43.420,-0.184,0.076,0.97
11:02:43.615,-0.22,0.065,0.986
11:02:43.809,-0.204,0.081,0.986
11:02:44.052,-0.189,0.07,0.985
11:02:44.246,-0.23,0.069,0.944
11:02:44.443,-0.284,0.075,0.988
11:02:44.638,-0.331,0.089,0.929
11:02:44.833,-0.422,0.146,0.896
11:02:45.028,-0.512,0.26,0.831
11:02:45.223,-0.476,0.326,0.759
11:02:45.417,-0.409,0.138,0.841
11:02:45.613,-0.384,-0.036,0.945
11:02:45.809,-0.375,-0.014,0.928
11:02:46.003,-0.382,0.009,0.895
11:02:46.199,-0.384,0.01,0.925
11:02:46.392,-0.385,-0.005,0.929
11:02:46.588,-0.399,-0.01,0.92
11:02:46.783,-0.403,0.006,0.939
11:02:46.978,-0.378,-0.003,0.933
11:02:47.173,-0.389,0.001,0.917
11:02:47.368,-0.415,0.011,0.912
11:02:47.564,-0.396,0.007,0.923
11:02:47.758,-0.398,0.005,0.937
11:02:47.953,-0.382,-0.007,0.919
11:02:48.148,-0.383,0.007,0.937
11:02:48.393,-0.371,0.014,0.919
11:02:48.587,-0.371,0.013,0.905
11:02:48.794,-0.422,-0.014,0.934
11:02:48.975,-0.378,0.002,0.931
11:02:49.171,-0.373,-0.012,0.923
11:02:49.367,-0.372,-0.008,0.925
11:02:49.561,-0.384,-0.012,0.913
11:02:49.756,-0.398,0.0,0.935
11:02:49.950,-0.367,0.0,0.937
11:02:50.146,-0.37,-0.002,0.946
11:02:50.340,-0.372,-0.003,0.932
11:02:50.537,-0.388,0.006,0.933
11:02:50.735,-0.37,-0.004,0.931
11:02:50.927,-0.34,-0.004,0.941
11:02:51.121,-0.363,-0.006,0.929
11:02:51.317,-0.368,0.006,0.936
11:02:51.512,-0.367,-0.012,0.924
11:02:51.707,-0.371,0.011,0.913
11:02:51.902,-0.364,-0.008,0.938
11:02:52.096,-0.37,-0.005,0.922
11:02:52.291,-0.359,0.011,0.936
11:02:52.486,-0.347,0.0,0.942
11:02:52.730,-0.356,0.0,0.934
11:02:52.926,-0.341,-0.022,0.97
11:02:53.120,-0.367,-0.017,0.933
11:02:53.315,-0.374,0.013,0.941
11:02:53.511,-0.358,-0.004,0.965
11:02:53.706,-0.366,0.0,0.925
11:02:53.902,-0.362,0.008,0.934
11:02:54.094,-0.365,-0.008,0.925
11:02:54.290,-0.376,0.017,0.929
11:02:54.484,-0.339,-0.004,0.938
11:02:54.679,-0.369,0.017,0.928
11:02:54.876,-0.361,0.006,0.922
11:02:55.070,-0.348,-0.01,0.949
11:02:55.264,-0.36,-0.007,0.943
11:02:55.460,-0.35,0.015,0.936
11:02:55.655,-0.373,0.004,0.933
11:02:55.849,-0.361,0.007,0.922
11:02:56.044,-0.348,0.002,0.933
11:02:56.239,-0.394,-0.009,0.933
11:02:56.435,-0.376,0.016,0.903
11:02:56.630,-0.383,0.004,0.927
11:02:56.824,-0.366,-0.004,0.923
11:02:57.068,-0.37,-0.006,0.938
11:02:57.263,-0.369,0.005,0.926
11:02:57.458,-0.373,0.009,0.937
11:02:57.653,-0.358,-0.004,0.94
11:02:57.848,-0.364,0.006,0.926
11:02:58.043,-0.353,-0.034,0.943
11:02:58.238,-0.367,0.015,0.926
11:02:58.433,-0.35,0.017,0.928
11:02:58.628,-0.412,-0.035,0.911
11:02:58.823,-0.386,-0.007,0.938
11:02:59.019,-0.367,0.0,0.911
11:02:59.213,-0.379,-0.012,0.923
11:02:59.409,-0.367,0.004,0.922
11:02:59.603,-0.363,-0.025,0.933
11:02:59.798,-0.367,-0.004,0.926
11:02:59.993,-0.363,-0.016,0.916
11:03:00.188,-0.369,-0.017,0.931
11:03:00.383,-0.388,-0.004,0.946
11:03:00.579,-0.348,-0.023,0.919
11:03:00.774,-0.37,0.004,0.931
11:03:00.968,-0.375,0.008,0.929
11:03:01.163,-0.366,0.005,0.911
11:03:01.407,-0.386,-0.006,0.939
11:03:01.602,-0.393,-0.004,0.926
11:03:01.797,-0.391,-0.002,0.93
11:03:01.992,-0.364,-0.009,0.926
11:03:02.187,-0.38,0.002,0.937
11:03:02.382,-0.379,-0.01,0.931
11:03:02.577,-0.355,-0.002,0.934
11:03:02.771,-0.372,0.018,0.911
11:03:02.966,-0.39,-0.015,0.943
11:03:03.161,-0.374,-0.02,0.935
11:03:03.357,-0.366,0.015,0.928
11:03:03.551,-0.4,-0.009,0.947
11:03:03.747,-0.388,-0.013,0.935
11:03:03.942,-0.384,-0.009,0.942
11:03:04.136,-0.513,0.051,0.828
11:03:04.332,-0.651,0.129,0.786
11:03:04.526,-0.88,0.361,0.461
11:03:04.727,-0.881,0.416,0.41
11:03:04.917,-0.781,0.321,0.465
11:03:05.114,-0.674,0.248,0.484
11:03:05.307,-0.726,0.389,0.526
11:03:05.504,-0.737,0.407,0.57
11:03:05.746,-0.898,0.308,0.588
11:03:05.941,-1.184,-0.375,0.181
11:03:06.136,-1.029,-0.209,0.283
11:03:06.331,-0.798,-0.333,0.145
11:03:06.527,-0.844,-0.525,0.28
11:03:06.721,-0.751,-0.548,0.287
11:03:06.917,-0.852,-0.634,0.316
11:03:07.112,-0.731,-0.547,0.317
11:03:07.309,-0.586,-0.649,0.449
11:03:07.502,-0.66,-0.573,0.587
11:03:07.700,-0.474,-0.507,0.643
11:03:07.892,-0.394,-0.529,0.782
11:03:08.089,-0.282,-0.536,0.789
11:03:08.281,-0.366,-0.257,0.891
11:03:08.478,-0.016,-0.069,0.777
11:03:08.672,-0.017,0.228,0.891
11:03:08.867,0.149,0.479,1.096
11:03:09.062,0.284,0.224,1.075
11:03:09.257,-0.356,-0.189,0.77
11:03:09.453,-0.464,-0.31,0.989
11:03:09.647,-0.381,-0.276,0.985
11:03:09.842,-0.133,-0.949,-0.628
11:03:10.085,-0.432,-0.707,-0.595
11:03:10.281,-0.279,-0.585,-0.718
11:03:10.489,-0.155,-0.621,-0.749
11:03:10.670,-0.114,-0.708,-0.796
11:03:10.866,0.1,-0.576,-0.847
11:03:11.061,-0.03,-0.471,-0.738
11:03:11.260,-0.601,-0.844,-0.372
11:03:11.451,-0.893,-0.369,0.618
11:03:11.645,-0.479,-0.503,0.285
11:03:11.841,-0.611,-0.305,0.696
11:03:12.036,-0.787,-0.259,0.747
11:03:12.231,-0.68,-0.196,0.753
11:03:12.426,-0.761,-0.091,0.647
11:03:12.621,-0.746,-0.142,0.635
11:03:12.815,-0.831,-0.077,0.543
11:03:13.011,-0.95,0.053,0.454
11:03:13.206,-0.886,0.064,0.38
11:03:13.402,-0.949,0.122,0.3
11:03:13.596,-0.915,0.169,0.361
11:03:13.791,-0.915,0.136,0.326
11:03:13.985,-0.894,0.076,0.29
11:03:14.182,-0.982,0.058,0.288
11:03:14.426,-0.948,0.081,0.319
11:03:14.619,-0.975,0.001,0.268
11:03:14.815,-1.031,0.01,0.258
11:03:15.009,-0.977,0.073,0.246
11:03:15.205,-0.991,0.07,0.183
11:03:15.400,-1.013,0.145,0.2
11:03:15.595,-0.977,0.121,0.165
11:03:15.790,-0.964,0.154,0.203
11:03:15.985,-0.971,0.163,0.226
11:03:16.180,-0.958,0.097,0.222
11:03:16.375,-0.967,0.099,0.236
11:03:16.570,-0.958,0.068,0.259
11:03:16.766,-0.95,0.077,0.256
11:03:16.960,-0.971,0.085,0.243
11:03:17.154,-0.936,0.143,0.227
11:03:17.350,-0.918,0.3,0.188
11:03:17.544,-0.948,0.235,0.218
11:03:17.739,-0.941,0.113,0.244
11:03:17.934,-0.958,0.243,0.211
11:03:18.130,-0.923,0.03,0.291
11:03:18.324,-0.996,0.114,0.22
11:03:18.519,-0.945,0.117,0.29
11:03:18.763,-0.958,0.112,0.241
11:03:18.957,-0.949,0.146,0.262
11:03:19.154,-0.925,0.08,0.349
11:03:19.349,-0.947,0.082,0.106
11:03:19.560,-0.924,0.112,0.191
11:03:19.738,-1.006,0.044,0.171
11:03:19.933,-0.977,0.171,0.031
11:03:20.128,-0.942,0.119,0.209
11:03:20.324,-0.986,0.101,0.166
11:03:20.519,-0.984,0.15,0.197
11:03:20.714,-0.852,0.08,0.296
11:03:20.908,-0.978,0.098,0.221
11:03:21.103,-1.087,0.131,0.207
11:03:21.299,-0.928,0.084,0.312
11:03:21.494,-1.022,0.064,0.156
11:03:21.689,-1.009,0.189,0.199
11:03:21.883,-0.984,0.115,0.233
11:03:22.079,-0.993,0.194,0.09
11:03:22.273,-0.953,0.199,0.125
11:03:22.470,-0.988,0.246,0.104
11:03:22.664,-0.975,0.239,0.103
11:03:22.859,-0.984,0.188,0.106
11:03:23.103,-0.966,0.184,0.106
11:03:23.298,-0.963,0.194,0.124
11:03:23.494,-0.962,0.215,0.098
11:03:23.688,-0.97,0.23,0.124
11:03:23.883,-0.952,0.232,0.114
11:03:24.078,-0.956,0.231,0.127
11:03:24.272,-0.99,0.215,0.165
11:03:24.467,-0.935,0.106,0.11
11:03:24.663,-0.987,0.119,0.089
11:03:24.858,-0.944,0.165,0.116
11:03:25.053,-0.955,0.229,0.12
11:03:25.247,-0.975,0.194,0.178
11:03:25.442,-0.977,0.205,0.162
11:03:25.638,-0.941,0.169,0.217
11:03:25.832,-0.949,0.166,0.197
11:03:26.029,-0.998,0.176,0.148
11:03:26.222,-0.971,0.137,0.133
11:03:26.418,-0.981,0.159,0.156
11:03:26.611,-0.963,0.155,0.197
11:03:26.807,-0.957,0.156,0.221
11:03:27.004,-0.955,0.115,0.231
11:03:27.199,-0.945,0.148,0.259
11:03:27.441,-0.94,0.152,0.259
11:03:27.636,-0.938,0.147,0.271
11:03:27.833,-0.967,0.161,0.286
11:03:28.026,-0.979,0.119,0.272
11:03:28.221,-0.937,0.208,0.266
11:03:28.416,-0.948,0.187,0.248
11:03:28.611,-0.967,0.169,0.254
11:03:28.805,-0.943,0.179,0.229
11:03:29.001,-0.959,0.248,0.207
11:03:29.196,-0.935,0.231,0.204
11:03:29.390,-0.952,0.142,0.21
11:03:29.586,-0.965,0.131,0.175
11:03:29.780,-0.969,0.142,0.151
11:03:29.978,-0.901,0.237,0.348
11:03:30.171,-1.034,0.046,0.123
11:03:30.366,-0.991,-0.121,-0.208
11:03:30.561,-0.762,-0.202,-0.382
11:03:30.756,-0.627,-0.06,-0.668
11:03:30.951,-0.522,-0.105,-0.789
11:03:31.146,-0.602,-0.117,-0.786
11:03:31.341,-0.653,-0.166,-0.769
11:03:31.536,-0.732,-0.114,-0.674
11:03:31.783,-0.61,-0.091,-0.817
11:03:31.974,-0.736,-0.211,-0.642
11:03:32.170,-0.764,-0.088,-0.684
11:03:32.365,-0.704,-0.249,-0.555
11:03:32.560,-0.836,-0.18,-0.641
11:03:32.754,-0.743,-0.24,-0.558
11:03:32.951,-0.639,-0.23,-0.52
11:03:33.145,-1.045,0.192,0.758
11:03:33.341,-0.85,0.165,0.769
11:03:33.535,-0.812,0.22,0.617
11:03:33.730,-0.631,0.312,0.558
11:03:33.925,-0.633,0.317,0.713
11:03:34.124,-0.838,0.278,0.521
11:03:34.317,-0.798,0.297,0.456
11:03:34.510,-0.871,0.22,0.446
11:03:34.705,-0.771,0.361,0.466
11:03:34.900,-0.803,0.312,0.435
11:03:35.096,-0.884,0.111,0.405
11:03:35.290,-0.949,0.156,0.4
11:03:35.485,-0.913,0.028,0.475
11:03:35.682,-0.929,-0.021,0.127
11:03:35.875,-0.934,0.122,0.498
11:03:36.119,-0.89,0.128,0.386
11:03:36.314,-0.895,0.157,0.46
11:03:36.511,-0.965,0.006,0.395
11:03:36.703,-0.879,0.173,0.554
11:03:36.898,-0.863,0.195,0.296
11:03:37.094,-0.932,0.123,0.27
11:03:37.292,-0.964,0.12,0.437
11:03:37.484,-0.916,0.09,0.371
11:03:37.679,-0.842,0.101,0.397
11:03:37.873,-0.901,0.153,0.499
11:03:38.069,-0.914,0.125,0.372
11:03:38.263,-0.908,0.182,0.441
11:03:38.459,-0.854,0.107,0.346
11:03:38.656,-0.896,0.152,0.435
11:03:38.849,-0.922,0.167,0.484
11:03:39.044,-0.869,0.175,0.466
11:03:39.238,-0.884,0.137,0.395
11:03:39.433,-0.465,-0.184,1.042
11:03:39.629,-0.722,-0.101,0.521
11:03:39.823,-0.781,0.028,0.826
11:03:40.019,-0.418,-0.043,0.656
11:03:40.213,-0.499,0.002,0.773
11:03:40.458,-0.775,0.071,0.692
11:03:40.652,-0.929,-0.253,0.668
11:03:40.848,-0.775,-0.292,0.737
11:03:41.042,-0.401,-0.164,0.832
11:03:41.239,-0.141,-0.85,1.015
11:03:41.432,0.238,-0.442,0.854
11:03:41.627,-0.29,0.065,1.108
11:03:41.822,-0.091,-0.27,0.749
11:03:42.018,-0.358,-0.281,0.992
11:03:42.213,-0.45,0.008,0.709
11:03:42.407,-0.315,-0.335,0.917
11:03:42.603,-0.237,-0.428,0.878
11:03:42.798,-0.414,-0.368,0.876
11:03:42.992,-0.318,-0.412,0.876
11:03:43.187,-0.241,-0.348,0.875
11:03:43.383,-0.363,-0.798,1.25
11:03:43.578,-0.145,-1.476,1.999
11:03:43.774,-0.176,-0.455,0.892
11:03:43.968,-0.091,-0.404,0.928
11:03:44.164,-0.126,-0.356,0.934
11:03:44.359,-0.199,-0.338,0.916
11:03:44.553,-0.151,-0.351,0.924
11:03:44.797,-0.195,-0.312,0.937
11:03:44.992,-0.22,-0.28,0.921
11:03:45.187,-0.128,-0.224,0.951
11:03:45.382,-0.171,-0.258,0.962
11:03:45.577,-0.191,-0.254,0.962
11:03:45.772,-0.187,-0.244,0.971
11:03:45.966,-0.199,-0.243,0.937
11:03:46.163,-0.197,-0.235,0.95
11:03:46.357,-0.191,-0.25,0.975
11:03:46.552,-0.175,-0.243,0.952
11:03:46.747,-0.222,-0.247,0.946
11:03:46.942,-0.187,-0.248,0.947
11:03:47.137,-0.223,-0.259,0.947
11:03:47.332,-0.194,-0.249,0.945
11:03:47.527,-0.201,-0.269,0.958
11:03:47.721,-0.204,-0.25,0.946
11:03:47.916,-0.223,-0.249,0.957
11:03:48.114,-0.203,-0.266,0.957
11:03:48.306,-0.214,-0.254,0.953
11:03:48.501,-0.21,-0.247,0.941
11:03:48.697,-0.22,-0.252,0.951
11:03:48.891,-0.23,-0.269,0.964
11:03:49.135,-0.224,-0.242,0.957
11:03:49.330,-0.195,-0.296,1.005
11:03:49.525,-0.223,-0.225,0.956
11:03:49.720,-0.228,-0.241,0.948
11:03:49.915,-0.274,-0.193,0.923
11:03:50.111,-0.367,-0.192,0.916
11:03:50.305,-0.293,-0.255,0.911
11:03:50.501,-0.207,-0.28,0.955
11:03:50.695,-0.217,-0.277,0.918
11:03:50.892,-0.179,-0.28,0.935
11:03:51.085,-0.201,-0.269,0.962
11:03:51.281,-0.129,-0.222,1.009
11:03:51.475,-0.296,-0.267,0.964
11:03:51.670,-0.439,-0.197,0.917
11:03:51.865,-0.136,-0.22,0.935
11:03:52.060,-0.252,-0.254,0.951
11:03:52.256,-0.229,-0.245,0.969
11:03:52.451,-0.231,-0.233,0.96
11:03:52.645,-0.212,-0.285,0.961
11:03:52.840,-0.211,-0.183,0.91
11:03:53.036,-0.078,-0.271,0.961
11:03:53.230,-0.199,-0.141,0.949
11:03:53.474,0.016,-0.38,0.956
11:03:53.670,-0.106,-0.211,0.978
11:03:53.865,-0.006,-0.277,0.955
11:03:54.059,-0.033,-0.255,1.069
11:03:54.254,-0.163,-0.248,0.919
11:03:54.450,-0.142,-0.21,0.962
11:03:54.644,-0.189,-0.3,1.15
11:03:54.839,-0.378,-0.244,0.88
11:03:55.034,-0.246,-0.146,1.113
11:03:55.230,-0.105,-0.221,0.992
11:03:55.425,-0.025,-0.224,1.021
11:03:55.621,0.151,-0.221,1.06
11:03:55.815,-0.047,-0.235,0.997
11:03:56.010,-0.047,-0.217,0.972
11:03:56.204,-0.013,-0.234,0.953
11:03:56.400,-0.162,-0.228,0.902
11:03:56.644,-0.041,-0.204,0.955
11:03:56.839,-0.063,-0.211,0.997
11:03:56.988,-0.104,-0.199,0.968
11:03:57.179,-0.158,-0.19,0.978
11:03:57.373,-0.102,-0.215,0.867
11:03:57.568,-0.099,-0.239,0.931
11:03:57.813,-0.067,-0.196,0.994
11:03:58.007,-0.377,-0.166,0.949
11:03:58.204,-0.111,-0.218,0.974
11:03:58.398,-0.151,-0.202,0.982
11:03:58.593,-0.101,-0.19,0.96
11:03:58.788,-0.126,-0.182,0.976
11:03:59.031,-0.015,-0.226,1.024
11:03:59.179,-0.258,0.002,0.935
11:03:59.373,0.201,-0.08,0.906
11:03:59.568,-0.154,-0.166,0.913
11:03:59.763,-0.129,-0.199,0.998
11:03:59.958,-0.158,-0.146,0.962
11:04:00.153,-0.23,-0.129,0.965
11:04:00.347,0.273,-0.443,1.057
11:04:00.544,-0.112,-0.246,0.8
11:04:00.738,0.321,-0.141,1.413
11:04:00.933,-0.093,-0.082,1.038
11:04:01.128,0.046,-0.188,0.954
11:04:01.322,-0.203,-0.166,0.977
11:04:01.567,-0.274,-0.144,0.97
11:04:01.713,-0.109,-0.161,0.964
11:04:01.908,-0.116,-0.161,0.969
11:04:02.152,-0.21,-0.14,0.978
11:04:02.348,-0.176,-0.157,0.991
11:04:02.541,-0.163,-0.156,0.976
11:04:02.737,-0.364,-0.168,1.075
11:04:02.931,-0.186,-0.165,0.969
11:04:03.126,-0.237,-0.145,0.966
11:04:03.322,-0.283,-0.107,0.988
11:04:03.517,-0.132,-0.135,0.948
11:04:03.712,-0.184,-0.129,0.981
11:04:03.906,-0.054,-0.139,1.01
11:04:04.101,-0.215,-0.13,0.98
11:04:04.297,-0.237,-0.146,0.978
11:04:04.492,-0.209,-0.122,0.962
11:04:04.833,-0.187,-0.132,0.985
11:04:04.884,-0.164,-0.122,0.998
11:04:05.223,-0.149,-0.071,0.994
11:04:05.272,-0.219,-0.046,0.971
11:04:05.516,-0.21,-0.117,0.98
11:04:05.662,-0.221,-0.114,0.954
11:04:05.858,-0.143,-0.174,0.979
11:04:06.052,-0.278,-0.13,1.008
11:04:06.247,-0.598,-0.166,0.941
11:04:06.492,-0.278,-0.108,0.978
11:04:06.686,-0.182,-0.068,1.002
11:04:06.930,-0.177,-0.055,1.015
11:04:07.077,-0.262,-0.067,0.961
11:04:07.270,-0.202,-0.096,0.995
11:04:07.468,-0.271,-0.041,1.134
11:04:07.661,-0.198,0.018,0.961
11:04:07.857,-0.332,0.115,0.958
11:04:08.052,-0.156,0.083,1.037
11:04:08.246,-0.719,0.207,0.718
11:04:08.441,-0.611,0.36,0.599
11:04:08.635,-0.657,0.447,0.725
11:04:08.830,-0.635,0.478,0.69
11:04:09.025,-0.445,0.558,0.571
11:04:09.221,-0.411,0.58,0.612
11:04:09.415,-0.35,0.787,0.362
11:04:09.611,-0.57,0.706,0.364
11:04:09.806,-0.637,0.75,0.373
11:04:10.000,-0.143,0.753,0.587
11:04:10.195,-0.004,0.642,0.717
11:04:10.391,0.036,0.61,0.751
11:04:10.586,-0.008,0.662,0.724
11:04:10.829,-0.038,0.815,0.4
11:04:11.025,-0.232,0.733,0.556
11:04:11.268,-0.206,0.545,1.141
11:04:11.415,-0.221,0.445,0.837
11:04:11.610,-0.013,0.625,0.783
11:04:11.808,-0.235,0.654,0.863
11:04:11.999,-0.101,0.69,0.763
11:04:12.194,-0.236,0.566,0.803
11:04:12.389,-0.081,0.619,0.737
11:04:12.585,-0.2,0.601,0.7
11:04:12.780,-0.152,0.616,0.72
11:04:12.975,-0.031,0.486,0.864
11:04:13.170,-0.003,0.471,0.955
11:04:13.365,0.019,0.543,0.743
11:04:13.562,-0.276,0.522,0.842
11:04:13.755,-0.163,0.514,0.872
11:04:13.951,-0.131,0.465,0.869
11:04:14.145,-0.231,0.45,0.872
11:04:14.340,-0.181,0.473,0.878
11:04:14.535,-0.22,0.474,0.874
11:04:14.730,-0.217,0.442,0.84
11:04:14.925,-0.221,0.47,0.869
11:04:15.169,-0.18,0.477,0.868
11:04:15.363,-0.199,0.49,0.872
11:04:15.560,-0.19,0.574,0.794
11:04:15.755,-0.159,0.52,0.787
11:04:15.951,-0.298,0.494,0.822
11:04:16.144,-0.022,0.486,0.909
11:04:16.339,-0.212,0.43,0.858
11:04:16.533,-0.143,0.423,0.847
11:04:16.730,-0.126,0.411,0.89
11:04:16.922,-0.152,0.355,0.921
11:04:17.119,-0.02,0.064,0.892
11:04:17.320,-0.117,0.052,0.973
11:04:17.508,-0.165,-0.132,1.097
11:04:17.703,-0.395,-0.097,0.873
11:04:17.897,-0.298,-0.191,0.95
11:04:18.092,-0.307,-0.209,0.88
11:04:18.288,-0.513,-0.345,1.006
11:04:18.482,-0.215,-0.252,0.854
11:04:18.677,-0.354,-0.193,0.918
11:04:18.872,-0.356,-0.276,0.907
11:04:19.067,-0.336,-0.246,0.924
11:04:19.263,-0.358,-0.254,0.902
11:04:19.506,-0.309,-0.315,1.044
11:04:19.701,-0.7,0.022,0.735
11:04:19.896,-0.198,0.605,0.404
11:04:20.091,-0.47,0.721,0.488
11:04:20.286,-0.621,0.676,0.461
11:04:20.481,-0.222,0.786,0.276
11:04:20.676,-1.0,0.026,0.643
11:04:20.871,-0.229,-0.023,1.014
11:04:21.067,-0.268,-0.147,0.926
11:04:21.262,-0.376,-0.217,0.934
11:04:21.456,-0.303,-0.329,0.916
11:04:21.651,-0.349,-0.236,0.909
11:04:21.846,-0.327,-0.253,0.888
11:04:22.041,-0.352,-0.19,0.875
11:04:22.237,-0.341,-0.237,0.938
11:04:22.480,-0.332,-0.222,0.895
11:04:22.626,-0.353,-0.238,0.913
11:04:22.821,-0.356,-0.24,0.911
11:04:23.016,-0.345,-0.245,0.914
11:04:23.211,-0.351,-0.252,0.908
11:04:23.406,-0.344,-0.253,0.911
11:04:23.605,-0.339,-0.243,0.914
11:04:23.846,-0.338,-0.259,0.916
11:04:24.040,-0.367,-0.24,0.906
11:04:24.235,-0.342,-0.241,0.911
11:04:24.431,-0.349,-0.239,0.916
11:04:24.624,-0.358,-0.224,0.894
11:04:24.820,-0.369,-0.215,0.887
11:04:25.022,-0.374,-0.282,0.967
11:04:25.213,-0.273,-0.242,0.926
11:04:25.405,-0.3,-0.258,0.927
11:04:25.601,-0.296,-0.254,0.922
11:04:25.795,-0.295,-0.231,0.908
11:04:25.990,-0.311,-0.234,0.937
11:04:26.185,-0.275,-0.246,0.937
11:04:26.380,-0.312,-0.246,0.939
11:04:26.576,-0.291,-0.253,0.928
11:04:26.772,-0.303,-0.272,0.917
11:04:26.965,-0.298,-0.234,0.918
11:04:27.228,-0.291,-0.254,0.945
11:04:27.363,-0.311,-0.239,0.928
11:04:27.549,-0.322,-0.244,0.925
11:04:27.745,-0.33,-0.243,0.923
11:04:27.940,-0.324,-0.24,0.929
11:04:28.183,-0.327,-0.223,0.897
11:04:28.379,-0.33,-0.207,0.927
11:04:28.574,-0.333,-0.228,0.923
11:04:28.773,-0.354,-0.206,0.926
11:04:28.968,-0.334,-0.222,0.91
11:04:29.159,-0.34,-0.213,0.93
11:04:29.354,-0.341,-0.208,0.91
11:04:29.550,-0.331,-0.217,0.925
11:04:29.744,-0.345,-0.221,0.909
11:04:29.940,-0.339,-0.201,0.915
11:04:30.134,-0.329,-0.24,0.923
11:04:30.329,-0.312,-0.248,0.928
11:04:30.525,-0.322,-0.224,0.906
11:04:30.730,-0.342,-0.228,0.919
11:04:30.914,-0.335,-0.215,0.929
11:04:31.109,-0.341,-0.217,0.91
11:04:31.304,-0.33,-0.229,0.91
11:04:31.500,-0.342,-0.234,0.92
11:04:31.696,-0.336,-0.232,0.926
11:04:31.889,-0.335,-0.223,0.935
11:04:32.086,-0.331,-0.221,0.892
11:04:32.280,-0.339,-0.201,0.919
11:04:32.524,-0.335,-0.22,0.926
11:04:32.718,-0.325,-0.221,0.905
11:04:32.912,-0.327,-0.227,0.937
11:04:33.109,-0.32,-0.231,0.934
11:04:33.308,-0.336,-0.231,0.922
11:04:33.507,-0.337,-0.229,0.918
11:04:33.693,-0.332,-0.219,0.923
11:04:33.893,-0.322,-0.219,0.923
11:04:34.084,-0.316,-0.216,0.909
11:04:34.278,-0.323,-0.224,0.937
11:04:34.473,-0.316,-0.217,0.93
11:04:34.716,-0.32,-0.216,0.925
11:04:34.862,-0.366,-0.233,0.917
11:04:35.058,-0.339,-0.216,0.937
11:04:35.252,-0.312,-0.227,0.936
11:04:35.448,-0.352,-0.199,0.92
11:04:35.643,-0.358,-0.202,0.909
11:04:35.839,-0.349,-0.2,0.917
11:04:36.036,-0.343,-0.225,0.918
11:04:36.228,-0.333,-0.223,0.939
11:04:36.427,-0.349,-0.214,0.893
11:04:36.618,-0.336,-0.229,0.927
11:04:36.880,-0.341,-0.225,0.909
11:04:37.057,-0.355,-0.221,0.909
11:04:37.252,-0.343,-0.22,0.914
11:04:37.446,-0.335,-0.236,0.919
11:04:37.641,-0.335,-0.229,0.922
11:04:37.837,-0.347,-0.214,0.924
11:04:38.031,-0.339,-0.234,0.913
11:04:38.227,-0.338,-0.212,0.922
11:04:38.421,-0.345,-0.225,0.913
11:04:38.714,-0.35,-0.221,0.913
11:04:38.812,-0.349,-0.219,0.916
11:04:39.006,-0.341,-0.219,0.918
11:04:39.201,-0.341,-0.216,0.914
11:04:39.397,-0.356,-0.215,0.925
11:04:39.592,-0.336,-0.225,0.921
11:04:39.786,-0.342,-0.219,0.895
11:04:39.981,-0.348,-0.219,0.926
11:04:40.177,-0.351,-0.229,0.913
11:04:40.371,-0.334,-0.211,0.913
11:04:40.566,-0.353,-0.21,0.895
11:04:40.761,-0.343,-0.218,0.923
11:04:40.956,-0.342,-0.221,0.928
11:04:41.200,-0.34,-0.221,0.912
11:04:41.396,-0.325,-0.221,0.931
11:04:41.591,-0.346,-0.222,0.914
11:04:41.787,-0.351,-0.21,0.926
11:04:41.980,-0.348,-0.208,0.918
11:04:42.175,-0.345,-0.225,0.922
11:04:42.372,-0.344,-0.213,0.92
11:04:42.582,-0.34,-0.208,0.918
11:04:42.760,-0.349,-0.218,0.929
11:04:42.955,-0.353,-0.221,0.926
11:04:43.150,-0.35,-0.222,0.925
11:04:43.345,-0.345,-0.223,0.917
11:04:43.541,-0.355,-0.215,0.908
11:04:43.742,-0.343,-0.212,0.916
11:04:43.930,-0.36,-0.212,0.92
11:04:44.125,-0.351,-0.201,0.909
11:04:44.322,-0.34,-0.213,0.928
11:04:44.516,-0.337,-0.218,0.927
11:04:44.712,-0.33,-0.217,0.934
11:04:44.906,-0.344,-0.217,0.91
11:04:45.100,-0.344,-0.218,0.923
11:04:45.344,-0.345,-0.224,0.923
11:04:45.538,-0.357,-0.219,0.907
11:04:45.734,-0.354,-0.208,0.919
11:04:45.929,-0.348,-0.214,0.918
11:04:46.123,-0.341,-0.217,0.916
11:04:46.320,-0.346,-0.22,0.918
11:04:46.563,-0.341,-0.218,0.924
11:04:46.710,-0.33,-0.206,0.917
11:04:46.904,-0.335,-0.203,0.918
11:04:47.099,-0.341,-0.212,0.916
11:04:47.295,-0.348,-0.228,0.9
11:04:47.489,-0.327,-0.213,0.925
11:04:47.685,-0.337,-0.225,0.909
11:04:47.879,-0.356,-0.211,0.921
11:04:48.075,-0.341,-0.229,0.917
11:04:48.272,-0.344,-0.223,0.916
11:04:48.464,-0.288,-0.226,0.958
11:04:48.659,-0.382,-0.153,0.895
11:04:48.854,-0.358,-0.168,0.922
11:04:49.048,-0.365,-0.175,0.92
11:04:49.244,-0.356,-0.174,0.929
11:04:49.438,-0.347,-0.182,0.935
11:04:49.634,-0.361,-0.161,0.915
11:04:49.878,-0.362,-0.167,0.919
11:04:50.073,-0.373,-0.175,0.921
11:04:50.268,-0.364,-0.172,0.929
11:04:50.463,-0.332,-0.199,0.941
11:04:50.659,-0.359,-0.185,0.895
11:04:50.854,-0.345,-0.178,0.942
11:04:51.048,-0.344,-0.141,0.902
11:04:51.244,-0.354,-0.187,0.918
11:05:05.147,1.999,0.622,1.999
11:05:05.238,-0.287,-0.188,0.943
11:05:05.434,-0.297,-0.19,0.922
11:05:05.629,-0.271,-0.215,0.951
11:05:05.824,-0.28,-0.205,0.944
11:05:06.018,-0.275,-0.208,0.972
11:05:06.215,-0.382,-0.166,0.91
11:05:06.409,-0.448,-0.114,0.874
11:05:06.603,-0.375,-0.122,0.933
11:05:06.799,-0.372,-0.141,0.927
11:05:06.994,-0.37,-0.138,0.931
11:05:07.189,-0.373,-0.132,0.928
11:05:07.481,-0.331,-0.134,0.921
11:05:07.627,-0.473,-0.111,0.87
11:05:07.823,-0.653,-0.076,0.739
11:05:08.017,-0.936,-0.014,0.39
11:05:08.213,-0.966,0.037,0.29
11:05:08.409,-0.939,0.001,0.31
11:05:08.603,-0.937,0.017,0.308
11:05:08.797,-0.983,0.014,0.309
11:05:08.993,-0.932,-0.006,0.399
11:05:09.187,-0.114,-0.141,1.13
11:05:09.382,-0.125,-0.167,0.992
11:05:09.578,-0.179,-0.168,0.981
11:05:09.773,-0.243,-0.189,0.939
11:05:09.967,-0.236,-0.159,0.871
11:05:10.163,-0.219,-0.532,1.546
11:05:10.358,-0.44,-0.577,1.197
11:05:10.601,0.003,-0.123,0.769
11:05:10.752,0.211,0.47,0.627
11:05:10.942,0.201,0.653,0.158
11:05:11.137,0.374,0.844,-0.03
11:05:11.381,0.345,0.942,0.089
11:05:11.528,0.416,0.916,0.093
11:05:11.772,0.35,0.829,0.25
11:05:11.966,0.178,0.972,-0.036
11:05:12.162,0.173,0.854,0.129
11:05:12.356,0.188,0.551,0.663
11:05:12.552,0.227,0.027,0.84
11:05:12.747,0.136,-0.25,0.998
11:05:12.940,-0.041,-0.375,0.978
11:05:13.136,-0.284,-0.337,1.094
11:05:13.331,-0.28,-0.321,1.075
11:05:13.527,0.533,-0.683,0.614
11:05:13.720,0.633,-0.758,0.318
11:05:13.917,0.58,-0.723,0.24
11:05:14.209,0.601,-0.768,0.267
11:05:14.305,0.616,-0.754,0.365
11:05:14.503,0.236,-0.555,0.679
11:05:14.696,-0.719,0.124,0.534
11:05:14.892,-0.993,0.315,0.095
11:05:15.086,-0.987,0.259,-0.15
11:05:15.282,-0.946,0.244,-0.17
11:05:15.477,-0.978,0.266,-0.203
11:05:15.671,-0.958,0.256,0.05
11:05:15.868,-0.852,0.023,0.511
11:05:16.110,-0.596,-0.17,0.826
11:05:16.305,-0.28,-0.37,0.932
11:05:16.550,-0.041,-0.555,0.858
11:05:16.695,0.008,-0.622,0.843
11:05:16.889,0.16,-0.534,0.817
11:05:17.085,0.148,-0.462,0.811
11:05:17.281,0.044,-0.435,0.924
11:05:17.475,0.245,-0.342,0.82
11:05:17.673,0.143,-0.411,0.927
11:05:17.866,-0.112,-0.319,0.854
11:05:18.060,-0.299,-0.548,1.091
11:05:18.255,-0.49,-0.299,0.827
11:05:18.449,-0.535,-0.509,0.746
11:05:18.646,-0.748,-0.435,0.759
11:05:18.840,-0.534,-0.353,0.791
11:05:19.037,-0.193,-0.625,1.06
11:05:19.231,0.052,-0.604,1.021
11:05:19.425,0.027,-0.578,0.852
11:05:19.620,-0.006,-0.38,0.821
11:05:19.816,0.11,-0.319,0.811
11:05:20.011,0.291,-0.462,0.915
11:05:20.205,0.059,-0.481,0.878
11:05:20.449,0.017,-0.469,0.911
11:05:20.643,-0.249,-0.403,0.841
11:05:20.887,-0.344,-0.429,0.841
11:05:21.035,-0.326,-0.424,0.876
11:05:21.230,-0.326,-0.427,0.872
11:05:21.424,-0.43,-0.375,0.778
11:05:21.668,-0.213,-0.56,0.929
11:05:21.815,-0.006,-0.438,0.943
11:05:22.009,0.124,-0.441,0.895
11:05:22.204,0.079,-0.347,0.994
11:05:22.448,0.092,-0.19,0.927
11:05:22.593,-0.014,-0.188,0.968
11:05:22.790,0.083,-0.156,0.942
11:05:22.984,0.018,-0.204,0.997
11:05:23.228,-0.013,-0.199,0.994
11:05:23.375,0.08,-0.185,0.925
11:05:23.568,0.234,-0.326,0.902
11:05:23.763,0.125,-0.439,1.007
11:05:24.009,-0.041,-0.445,0.893
11:05:24.154,-0.395,-0.496,0.8
11:05:24.349,-0.305,-0.335,0.887
11:05:24.545,-0.273,-0.377,0.9
11:05:24.788,-0.221,-0.372,0.895
11:05:24.984,-0.234,-0.367,0.891
11:05:25.178,-0.155,-0.367,0.912
11:05:25.372,-0.105,-0.385,0.916
11:05:25.569,-0.096,-0.397,0.948
11:05:25.763,-0.284,-0.481,0.889
11:05:25.958,-0.003,-0.421,0.911
11:05:26.153,0.073,-0.466,0.899
11:05:26.348,0.174,-0.324,0.987
11:05:26.544,0.15,-0.208,0.947
11:05:26.738,0.18,-0.137,0.948
11:05:26.934,0.162,-0.145,1.003
11:05:27.127,0.273,-0.147,0.938
11:05:27.323,0.275,-0.193,0.897
11:05:27.518,0.243,-0.251,0.932
11:05:27.713,0.144,-0.222,0.993
11:05:27.907,0.178,-0.249,0.985
11:05:28.104,0.145,-0.204,0.953
11:05:28.297,0.12,-0.213,0.962
11:05:28.493,0.102,-0.232,0.983
11:05:28.688,-0.075,-0.231,0.981
11:05:28.884,0.069,-0.232,0.99
11:05:29.126,0.518,-1.022,0.868
11:05:29.321,-1.519,-0.715,0.593
11:05:29.516,0.05,-0.698,0.979
11:05:29.711,0.166,-0.257,1.027
11:05:29.907,-0.192,-0.056,0.952
11:05:30.101,0.102,-0.188,1.001
11:05:30.297,0.537,-0.585,0.895
11:05:30.491,-1.486,-0.583,0.904
11:05:30.687,0.01,-0.452,0.86
11:05:30.881,0.171,-0.447,1.067
11:05:31.077,0.073,-0.172,0.938
11:05:31.272,0.559,-0.37,1.019
11:05:31.470,-0.383,-0.834,0.657
11:05:31.662,-0.455,-0.288,0.88
11:05:31.856,-0.206,-0.464,0.915
11:05:32.051,0.233,-0.496,0.985
11:05:32.248,-0.109,-0.121,0.953
11:05:32.442,-0.147,-0.107,0.975
11:05:32.637,0.236,-0.239,1.035
11:05:32.832,-0.06,-0.682,1.02
11:05:33.027,-1.363,-0.68,0.803
11:05:33.222,0.179,-0.477,1.059
11:05:33.465,0.204,-0.226,0.954
11:05:33.660,0.0,-0.173,1.015
11:05:33.855,0.344,-0.13,0.928
11:05:34.052,-0.793,-0.088,0.111
11:05:34.295,-0.048,-0.146,0.671
11:05:34.440,0.673,-0.344,0.581
11:05:34.636,-1.338,0.605,-0.17
11:05:34.830,0.694,-0.683,1.424
11:05:35.026,-1.741,0.142,-0.163
11:05:35.220,-0.758,0.099,-0.259
11:05:35.416,-0.291,-0.125,0.258
11:05:35.610,0.724,-0.757,0.838
11:05:35.805,0.19,-0.642,0.261
11:05:36.001,-1.082,0.36,-0.368
11:05:36.243,-1.009,0.318,-0.359
11:05:36.391,0.108,-0.816,0.812
11:05:36.586,0.486,-0.434,0.983
11:05:36.780,-0.672,-0.188,0.352
11:05:36.975,-1.138,0.064,-0.436
11:05:37.170,-0.994,0.131,-0.21
11:05:37.365,-0.059,-0.224,0.721
11:05:37.609,0.441,-0.404,0.92
11:05:37.804,-0.481,-0.311,0.247
11:05:38.000,-1.094,0.256,-0.114
11:05:38.195,-0.409,-0.022,0.301
11:05:38.389,0.143,-0.658,0.818
11:05:38.585,0.328,-0.497,0.873
11:05:38.778,-0.982,-0.199,0.024
11:05:38.974,-1.069,0.272,-0.468
11:05:39.169,-0.301,-0.254,0.608
11:05:39.364,0.337,-0.679,0.917
11:05:39.559,-0.265,-0.423,0.699
11:05:39.754,-1.073,0.167,-0.102
11:05:39.949,-0.942,0.038,-0.19
11:05:40.144,-0.986,0.052,-0.041
11:05:40.339,-0.204,-0.194,0.831
11:05:40.535,0.042,-0.344,0.899
11:05:40.729,0.066,-0.375,0.944
11:05:40.926,-0.025,-0.34,0.943
11:05:41.120,-0.029,-0.295,0.946
11:05:41.314,-0.073,-0.224,1.021
11:05:41.509,-0.082,-0.239,0.916
11:05:41.706,-0.151,-0.195,1.049
11:05:41.947,-0.197,-0.146,0.94
11:05:42.144,-0.147,-0.184,1.025
11:05:42.339,-0.141,-0.192,0.919
11:05:42.534,-0.244,-0.213,0.893
11:05:42.728,-0.194,-0.323,0.973
11:05:42.923,-0.403,-0.152,0.904
11:05:43.119,-0.312,-0.208,0.94
11:05:43.313,-0.309,-0.225,0.959
11:05:43.508,-0.312,-0.209,0.896
11:05:43.705,-0.323,-0.218,0.923
11:05:43.898,-0.337,-0.235,0.943
11:05:44.093,-0.33,-0.233,0.92
11:05:44.290,-0.31,-0.223,0.925
11:05:44.484,-0.335,-0.235,0.926
11:05:44.678,-0.295,-0.232,0.938
11:05:44.874,-0.316,-0.245,0.927
11:05:45.069,-0.307,-0.233,0.93
11:05:45.264,-0.31,-0.232,0.936
11:05:45.457,-0.584,-0.205,0.909
11:05:45.653,-0.872,0.072,0.278
11:05:45.849,-0.943,0.027,0.276
11:05:46.042,0.16,-0.125,1.146
11:05:46.288,-0.633,-0.036,0.763
11:05:46.481,-1.336,0.086,0.057
11:05:46.677,-0.125,-0.259,0.773
11:05:46.871,0.437,-0.325,1.298
11:05:47.067,-0.374,-0.156,0.723
11:05:47.261,-1.107,0.02,0.525
11:05:47.457,-0.546,-0.16,0.727
11:05:47.653,-0.031,-0.295,1.244
11:05:47.846,-0.444,-0.211,0.913
11:05:48.041,-0.63,-0.033,0.768
11:05:48.286,-0.47,0.011,0.865
11:05:48.431,-0.458,-0.022,0.909
11:05:48.628,-0.456,-0.019,0.899
11:05:48.821,-0.458,-0.008,0.878
11:05:49.017,-0.472,0.086,0.818
11:05:49.211,-2.0,-0.726,0.501
11:05:49.407,1.144,-1.411,1.38
11:05:49.603,-1.138,-1.72,1.436
11:05:49.797,-1.962,1.402,0.011
11:05:49.992,-1.652,-0.408,0.794
11:05:50.186,0.722,-1.065,1.483
11:05:50.382,-0.959,-1.019,1.544
11:05:50.625,-1.932,0.97,-0.066
11:05:50.822,-1.603,-0.495,0.867
11:05:51.015,0.692,-1.15,1.657
11:05:51.210,-1.605,-0.917,1.392
11:05:51.456,-1.261,1.011,-0.475
11:05:51.601,-1.725,-0.275,0.845
11:05:51.796,0.604,-0.967,1.589
11:05:51.990,-1.088,-0.721,1.352
11:05:52.186,-2.0,1.122,-0.368
11:05:52.381,-1.658,-0.953,1.213
11:05:52.576,0.542,-0.744,1.302
11:05:52.772,-1.453,-0.216,0.61
11:05:52.966,-0.551,0.48,0.614
11:05:53.161,-0.393,0.104,1.066
11:05:53.356,-0.52,-0.071,0.468
11:05:53.551,-2.0,-2.0,1.92
11:05:53.747,1.999,-0.308,0.464
11:05:53.941,1.999,-0.284,0.459
11:05:54.136,-0.137,-0.076,0.459
11:05:54.330,-0.035,-0.484,0.927
11:05:54.526,-0.119,-0.841,1.195
11:05:54.722,-2.0,-0.461,1.806
11:05:54.965,-2.0,-2.0,1.145
11:05:55.160,1.153,-2.0,1.718
11:05:55.404,0.38,0.189,0.921
11:05:55.549,0.109,0.289,0.626
11:05:55.745,-0.039,0.322,0.942
11:05:55.941,-0.133,0.041,1.199
11:05:56.135,-0.408,-0.051,1.142
11:05:56.329,-0.341,-0.062,0.743
11:05:56.525,-0.582,-0.005,1.02
11:05:56.720,-1.349,-0.174,1.258
11:05:56.914,-1.882,0.121,0.034
11:05:57.110,0.002,-2.0,1.523
11:05:57.306,0.834,0.318,0.815
11:05:57.500,-0.009,0.583,0.884
11:05:57.695,0.749,-0.907,1.368
11:05:57.890,-2.0,-2.0,0.705
11:05:58.086,-2.0,-0.215,0.941
11:05:58.281,-0.778,1.315,0.419
11:05:58.475,-1.424,0.493,0.656
11:05:58.669,-2.0,-2.0,0.089
11:05:58.864,1.593,-2.0,1.389
11:05:59.059,0.574,-1.172,1.033
11:05:59.304,-1.869,-1.19,1.011
11:05:59.498,-1.399,0.006,0.566
11:05:59.693,-0.742,0.617,0.924
11:06:05.007,1.999,1.616,1.381
11:06:05.104,-2.0,-1.585,-0.19
11:06:05.300,-0.65,-2.0,1.074
11:06:05.496,1.652,-0.814,0.953
11:06:05.689,-1.341,-2.0,1.267
11:06:05.934,-2.0,-1.048,0.447
11:06:06.081,-1.27,0.349,0.493
11:06:06.274,-0.75,1.219,0.403
11:06:06.470,-0.986,0.189,0.458
11:06:06.665,-1.392,-0.36,0.719
11:06:06.860,-0.53,-0.503,0.883
11:06:07.055,-0.37,-0.117,1.033
11:06:07.298,-0.842,0.018,0.734
11:06:07.543,-0.933,-0.089,0.656
11:06:07.689,-0.62,-0.182,0.781
11:06:07.884,-0.545,-0.357,0.713
11:06:08.079,-0.314,-0.693,0.851
11:06:08.322,-0.261,-0.69,0.794
11:06:08.470,-0.462,-0.617,0.793
11:06:08.663,-0.564,-0.412,0.796
11:06:08.858,-0.469,-0.26,0.741
11:06:09.053,-0.173,-0.052,0.757
11:06:09.249,-0.033,-0.484,0.918
11:06:09.443,-0.078,-0.408,1.232
11:06:09.638,-0.185,-0.265,0.973
11:06:09.835,-0.143,-0.284,0.974
11:06:10.029,-0.17,-0.12,0.977
11:06:10.223,-0.217,-0.199,0.977
11:06:10.418,-0.22,-0.141,0.985
11:06:10.613,-0.18,-0.145,0.981
11:06:10.906,-0.187,-0.124,0.97
11:06:11.005,-0.202,-0.137,0.971
11:06:11.199,-0.183,-0.147,1.007
11:06:11.393,-0.185,-0.125,0.976
11:06:11.637,-0.188,-0.142,0.972
11:06:11.833,-0.17,-0.143,0.985
11:06:12.027,-0.187,-0.125,0.971
11:06:12.222,-0.189,-0.131,0.977
11:06:12.417,-0.188,-0.131,0.969
11:06:12.612,-0.179,-0.13,0.979
11:06:12.807,-0.19,-0.141,0.975
11:06:13.002,-0.167,-0.14,0.983
11:06:13.198,-0.183,-0.137,0.957
11:06:13.394,-0.209,-0.15,0.983
11:06:13.589,-0.222,-0.149,0.969
11:06:13.783,-0.182,-0.151,0.985
11:06:13.979,-0.272,-0.164,0.995
11:06:14.173,-0.18,-0.11,0.96
11:06:14.368,-0.194,-0.087,0.972
11:06:14.562,-0.225,-0.065,0.953
11:06:14.757,-0.233,-0.113,0.99
11:06:14.953,-0.214,-0.094,0.972
11:06:15.147,-0.224,-0.107,0.987
11:06:15.342,-0.226,-0.095,0.965
11:06:15.539,-0.211,-0.102,0.984
11:06:15.733,-0.212,-0.097,0.967
11:06:15.976,-0.229,-0.117,0.972
11:06:16.172,-0.22,-0.1,0.965
11:06:16.366,-0.213,-0.116,0.979
11:06:16.561,-0.21,-0.122,0.967
11:06:16.758,-0.182,-0.107,1.0
11:06:16.951,-0.132,-0.121,0.993
11:06:17.146,-0.184,-0.111,0.973
11:06:17.341,-0.181,-0.106,0.982
11:06:17.537,-0.196,-0.105,0.98
11:06:17.730,-0.182,-0.108,0.99
11:06:17.927,-0.185,-0.108,0.981
11:06:18.122,-0.169,-0.105,0.968
11:06:18.317,-0.184,-0.12,0.963
11:06:18.515,-0.179,-0.069,1.068
11:06:18.707,-0.013,-0.234,0.732
11:06:18.902,-0.049,-0.136,1.003
11:06:19.096,-0.215,-0.152,1.007
11:06:19.293,-0.225,-0.083,0.836
11:06:19.485,-0.302,-0.054,0.89
11:06:19.681,-0.288,-0.051,0.932
11:06:19.877,-0.322,-0.036,0.953
11:06:20.072,-0.301,-0.038,0.936
11:06:20.315,-0.31,-0.031,0.933
11:06:20.509,-0.329,-0.062,0.936
11:06:20.706,-0.38,-0.046,0.931
11:06:20.900,-0.36,-0.035,0.939
11:06:21.095,-0.359,-0.026,0.928
11:06:21.290,-0.373,-0.024,0.927
11:06:21.485,-0.372,-0.041,0.925
11:06:21.680,-0.394,-0.035,0.928
