timestamp,gyrx,gyry,gyrz
11:18:21.538,21.37,-59.22,-25.79
11:18:21.733,21.43,-59.33,-29.37
11:18:21.928,21.64,-59.62,-32.89
11:18:22.123,21.58,-59.63,-36.08
11:18:22.366,21.42,-59.49,-39.36
11:18:22.513,21.61,-59.47,-42.98
11:18:22.708,21.86,-59.55,-46.48
11:18:22.905,21.85,-59.44,-49.73
11:18:23.149,21.88,-59.37,-53.18
11:18:23.343,21.96,-59.63,-56.73
11:18:23.539,22.49,-58.28,-59.59
11:18:23.733,22.36,-58.14,-63.06
11:18:23.928,22.11,-58.04,-66.34
11:18:24.125,22.3,-57.49,-69.44
11:18:24.319,21.62,-56.29,-72.16
11:18:24.515,21.45,-55.94,-75.36
11:18:24.709,21.35,-56.07,-78.44
11:18:24.903,21.49,-55.93,-81.67
11:18:25.099,21.64,-58.17,-86.29
11:18:25.295,21.68,-58.45,-89.73
11:18:25.489,21.84,-58.78,-93.33
11:18:25.684,22.03,-58.95,-96.89
11:18:25.879,22.04,-59.19,-100.48
11:18:26.072,22.01,-59.3,-103.97
11:18:26.267,22.19,-58.97,-107.42
11:18:26.463,22.09,-58.4,-110.72
11:18:26.658,21.92,-58.45,-114.03
11:18:26.854,21.87,-58.54,-117.28
11:18:27.048,22.08,-58.61,-120.95
11:18:27.242,21.99,-58.64,-124.35
11:18:27.485,22.11,-58.53,-127.73
11:18:27.680,22.36,-58.56,-131.42
11:18:27.875,22.3,-58.61,-134.89
11:18:28.071,22.11,-58.59,-138.0
11:18:28.265,22.04,-58.72,-141.52
11:18:28.460,22.19,-58.73,-144.99
11:18:28.704,22.5,-59.18,-148.89
11:18:28.850,22.63,-59.43,-152.56
11:18:29.045,22.67,-59.43,-156.06
11:18:29.241,22.48,-59.42,-159.33
11:18:29.435,22.11,-59.36,-162.53
11:18:29.679,22.02,-59.49,-165.99
11:18:29.826,21.76,-59.34,-169.23
11:18:30.021,21.82,-59.3,-172.64
11:18:30.215,21.78,-59.26,-175.89
11:18:30.460,21.7,-59.42,-179.21
11:18:30.606,21.67,-59.37,177.36
11:18:30.850,21.66,-59.33,173.94
11:18:30.997,21.93,-59.35,170.34
11:18:31.191,22.02,-59.12,166.86
11:18:31.385,22.25,-59.43,163.36
11:18:31.580,22.44,-59.65,159.67
11:18:31.824,22.61,-59.72,155.94
11:18:32.021,22.66,-59.92,152.38
11:18:32.215,22.73,-60.02,148.98
11:18:32.410,22.68,-59.89,145.77
11:18:32.617,22.42,-59.77,142.43
11:18:32.799,22.32,-59.78,139.11
11:18:32.995,22.28,-59.52,135.94
11:18:33.239,22.24,-59.67,132.5
11:18:33.385,22.1,-59.62,129.41
11:18:33.677,21.95,-59.67,126.18
11:18:33.775,22.14,-59.69,122.56
11:18:33.970,22.3,-59.84,118.96
11:18:34.165,22.5,-59.89,115.33
11:18:34.409,22.35,-59.82,112.06
11:18:34.800,22.61,-59.93,108.27
11:18:34.801,22.41,-59.85,104.94
11:18:34.946,22.67,-59.92,101.19
11:18:35.140,22.65,-59.21,97.92
11:18:35.384,22.63,-58.88,94.62
11:18:35.530,22.44,-58.77,92.03
11:18:35.725,22.65,-58.18,88.29
11:18:35.920,22.41,-57.62,85.28
11:18:36.164,22.26,-57.52,82.16
11:18:36.358,22.2,-57.68,78.68
11:18:36.554,22.04,-57.72,75.51
11:18:36.749,21.88,-57.82,72.3
11:18:36.943,22.43,-58.89,68.05
11:18:37.140,22.4,-60.04,63.84
11:18:37.333,22.63,-60.61,59.96
11:18:37.529,22.7,-60.89,56.47
11:18:37.724,22.69,-60.58,53.23
11:18:37.917,23.12,-60.49,49.53
11:18:38.113,23.23,-60.44,45.81
11:18:38.308,23.2,-60.35,42.23
11:18:38.503,22.95,-60.33,38.73
11:18:38.698,22.96,-60.45,35.41
11:18:38.894,22.86,-60.38,32.14
11:18:39.088,22.71,-60.58,28.65
11:18:39.283,22.57,-60.93,25.11
11:18:39.479,22.77,-61.25,21.16
11:18:39.674,22.66,-61.06,17.7
11:18:39.869,22.88,-61.12,14.17
11:18:40.064,23.04,-61.24,10.34
11:18:40.309,23.35,-60.48,7.05
11:18:40.502,23.81,-60.43,3.07
11:18:40.698,24.77,-60.51,-0.98
11:18:40.893,24.6,-60.08,-4.34
11:18:41.088,24.24,-60.17,-7.77
11:18:41.283,23.7,-60.26,-10.93
11:18:41.478,23.16,-60.4,-14.08
11:18:41.673,22.74,-60.49,-17.39
11:18:41.868,22.63,-60.21,-20.67
11:18:42.063,22.44,-60.23,-24.0
11:18:42.259,22.27,-59.96,-26.16
11:18:42.452,22.62,-60.32,-30.38
11:18:42.648,22.3,-60.34,-33.58
11:18:42.841,22.29,-59.45,-36.59
11:18:43.085,22.78,-59.63,-41.04
11:18:43.232,22.99,-59.56,-44.67
11:18:43.426,23.35,-59.77,-48.38
11:18:43.621,23.14,-60.1,-51.75
11:18:43.817,23.19,-60.13,-55.11
11:18:44.011,23.14,-61.04,-58.95
11:18:44.304,22.92,-62.24,-63.05
11:18:44.405,22.73,-61.93,-66.36
11:18:44.646,22.65,-61.75,-69.61
11:18:44.840,23.0,-61.73,-73.43
11:18:45.035,23.15,-61.33,-76.94
11:18:45.230,23.17,-61.02,-80.71
11:18:45.426,23.12,-60.54,-84.34
11:18:45.627,23.41,-60.62,-88.05
11:18:45.816,23.58,-60.6,-91.84
11:18:46.011,23.94,-60.5,-95.49
11:18:46.207,23.95,-60.44,-98.89
11:18:46.403,23.93,-59.01,-102.11
11:18:46.600,23.88,-59.24,-105.72
11:18:46.839,23.55,-59.48,-109.29
11:18:47.035,23.12,-60.51,-113.04
11:18:47.180,23.23,-60.92,-116.36
11:18:47.375,23.15,-60.51,-120.19
11:18:47.619,23.02,-60.83,-122.93
11:18:47.814,23.28,-60.78,-127.07
11:18:47.960,23.7,-61.46,-130.72
11:18:48.206,23.87,-61.85,-135.32
11:18:48.352,24.12,-62.41,-138.94
11:18:48.547,24.65,-62.8,-143.2
11:18:48.745,24.78,-62.7,-147.02
11:18:48.985,24.51,-62.48,-150.51
11:18:49.186,24.55,-61.1,-153.74
11:18:49.376,24.33,-60.56,-157.34
11:18:49.569,23.99,-60.57,-160.73
11:18:49.765,23.99,-60.55,-164.21
11:18:49.961,23.82,-60.81,-167.71
11:18:50.155,23.7,-60.72,-171.08
11:18:50.351,23.46,-60.79,-174.64
11:18:50.550,24.04,-60.64,-178.42
11:18:50.741,24.25,-60.34,178.0
11:18:50.936,24.44,-59.95,174.34
11:18:51.277,24.4,-59.76,170.87
11:18:51.326,24.8,-59.53,167.07
11:18:51.522,24.68,-58.99,163.76
11:18:51.716,24.19,-59.1,160.37
11:18:51.911,23.82,-59.08,157.12
11:18:52.107,24.0,-59.12,153.34
11:18:52.302,24.31,-58.71,149.46
11:18:52.495,25.42,-58.81,144.91
11:18:52.691,25.86,-59.52,140.57
11:18:52.886,24.77,-59.58,137.59
11:18:53.081,25.01,-59.47,133.8
11:18:53.325,24.46,-59.66,130.39
11:18:53.519,24.2,-59.74,127.15
11:18:53.714,23.98,-59.96,123.82
11:18:53.908,24.29,-60.09,120.21
11:18:54.104,23.98,-59.79,117.0
11:18:54.300,24.14,-59.59,113.59
11:18:54.493,24.27,-60.39,109.71
11:18:54.690,23.76,-60.83,106.48
11:18:54.884,23.2,-60.54,103.4
11:18:55.080,22.5,-60.28,100.35
11:18:55.274,22.17,-59.46,97.7
11:18:55.470,22.28,-59.7,94.33
11:18:55.665,22.36,-59.73,90.92
11:18:55.859,22.35,-59.97,87.66
11:18:56.055,22.45,-59.69,83.86
11:18:56.249,22.48,-60.19,80.23
11:18:56.445,22.59,-60.43,76.65
11:18:56.640,22.82,-60.34,73.16
11:18:56.836,22.95,-60.83,69.45
11:18:57.029,22.62,-60.88,66.29
11:18:57.227,22.71,-60.74,62.98
11:18:57.420,22.55,-62.05,58.94
11:18:57.664,22.89,-63.47,54.22
11:18:57.907,22.91,-63.2,50.47
11:18:58.102,23.27,-64.0,46.5
11:18:58.251,23.6,-63.67,42.73
11:18:58.446,23.79,-63.47,39.18
11:18:58.639,23.45,-63.47,35.92
11:18:58.836,23.48,-63.39,32.35
11:18:59.033,23.82,-63.33,28.52
11:18:59.223,23.5,-63.07,25.35
11:18:59.419,23.79,-62.88,21.59
11:18:59.614,24.02,-62.67,17.7
11:18:59.808,24.2,-62.4,13.95
11:19:00.005,24.24,-62.03,10.32
11:19:00.198,24.39,-61.75,6.93
11:19:00.393,24.24,-59.76,4.64
11:19:00.590,25.13,-59.1,0.37
11:19:00.788,24.79,-58.31,-3.43
11:19:00.979,24.46,-58.47,-6.45
11:19:01.175,24.1,-58.27,-9.62
11:19:01.369,24.06,-58.46,-13.41
11:19:01.563,24.1,-58.73,-17.19
11:19:01.759,24.12,-59.16,-20.81
11:19:02.002,23.7,-59.46,-24.16
11:19:02.237,22.64,-60.04,-26.96
11:19:02.393,21.9,-60.58,-29.72
11:19:02.588,21.23,-60.81,-32.14
11:19:02.783,21.8,-61.64,-36.26
11:19:02.977,22.57,-60.92,-40.63
11:19:03.173,22.47,-60.87,-44.5
11:19:03.369,22.7,-61.08,-48.27
11:19:03.562,23.56,-61.1,-52.72
11:19:03.758,24.26,-60.69,-56.49
11:19:03.954,24.59,-59.08,-60.45
11:19:04.147,24.94,-59.13,-64.41
11:19:04.346,25.04,-59.29,-68.24
11:19:04.538,25.14,-59.65,-71.8
11:19:04.781,26.09,-59.1,-76.03
11:19:04.930,26.85,-59.2,-80.75
11:19:05.124,26.1,-59.33,-84.08
11:19:05.318,25.74,-58.93,-87.12
11:19:05.563,25.79,-59.02,-90.81
11:19:05.708,25.75,-59.03,-94.49
11:19:05.902,25.84,-59.2,-98.41
11:19:06.145,25.71,-59.41,-102.18
11:19:06.390,25.12,-59.27,-105.27
11:19:06.537,24.82,-59.29,-108.53
11:19:06.731,24.43,-59.31,-111.9
11:19:06.926,24.45,-59.34,-115.5
11:19:07.121,25.18,-59.71,-119.68
11:19:07.365,25.24,-59.61,-123.3
11:19:07.511,25.04,-59.69,-126.66
11:19:07.710,24.99,-59.38,-130.22
11:19:07.949,24.84,-59.44,-133.69
11:19:08.145,25.04,-59.62,-137.46
11:19:08.292,24.99,-59.6,-140.72
11:19:08.485,24.83,-59.4,-144.22
11:19:08.681,24.58,-59.32,-147.37
11:19:08.880,24.31,-59.23,-150.64
11:19:09.073,24.21,-59.14,-154.09
11:19:09.266,24.38,-59.09,-157.71
11:19:09.462,24.45,-59.1,-161.36
11:19:09.704,24.67,-59.28,-165.26
11:19:09.850,25.57,-59.83,-169.69
11:19:10.046,27.53,-65.2,-175.43
11:19:10.289,15.9,-69.22,-164.91
11:19:10.486,3.93,-66.25,-165.77
11:19:10.681,-1.15,-56.66,-173.74
11:19:10.875,-4.86,-50.49,175.44
11:19:11.070,-8.74,-50.98,174.96
11:19:11.267,-4.32,-52.98,168.58
11:19:11.460,-4.67,-53.46,166.46
11:19:11.656,-6.54,-54.39,164.97
11:19:11.850,-5.26,-55.63,162.38
11:19:12.045,-1.19,-55.65,157.72
11:19:12.241,-2.32,-53.11,157.18
11:19:12.436,-6.87,-51.7,158.86
11:19:12.630,-4.65,-52.61,154.62
11:19:12.826,-3.25,-51.42,151.8
11:19:13.022,-3.61,-52.42,149.99
11:19:13.216,-3.94,-53.22,147.72
11:19:13.411,-3.79,-53.84,145.36
11:19:13.605,-3.47,-54.16,141.86
11:19:13.800,-2.74,-53.7,138.96
11:19:13.995,-2.37,-53.25,135.26
11:19:14.191,2.15,-52.85,129.81
11:19:14.385,6.9,-49.87,121.12
11:19:14.583,48.55,-49.02,100.67
11:19:15.019,53.05,-53.1,95.02
11:19:15.020,47.98,-54.16,94.55
11:19:15.214,34.88,-52.11,100.74
11:19:15.408,28.51,-48.14,102.16
11:19:15.604,26.31,-45.9,99.77
11:19:15.848,24.15,-44.18,97.78
11:19:16.042,23.14,-41.53,94.82
11:19:16.238,20.95,-39.76,91.79
11:19:16.385,18.36,-37.7,88.93
11:19:16.578,17.57,-33.74,88.51
11:19:16.775,10.66,-30.93,85.16
11:19:17.017,7.49,-31.26,82.52
11:19:17.163,7.68,-31.55,80.95
11:19:17.456,5.71,-31.7,78.77
11:19:17.553,3.92,-31.47,77.58
11:19:17.749,3.23,-32.14,75.38
11:19:18.042,2.24,-33.53,73.25
11:19:18.138,2.88,-34.81,71.26
11:19:18.433,2.26,-35.61,70.24
11:19:18.528,2.44,-36.15,67.76
11:19:18.772,2.92,-36.42,65.4
11:19:18.968,2.93,-36.8,63.0
11:19:19.163,3.3,-37.0,60.63
11:19:19.457,3.04,-37.14,58.29
11:19:19.554,4.3,-37.81,56.01
11:19:19.746,4.57,-37.92,54.15
11:19:19.942,8.58,-38.95,51.46
11:19:20.185,7.88,-37.89,51.39
11:19:20.430,-14.31,-46.8,90.74
11:19:20.575,-41.89,-32.81,151.26
11:19:20.723,-98.34,-64.06,-146.91
11:19:20.916,-103.07,-58.11,-120.54
11:19:21.112,-103.6,-59.38,-106.79
11:19:21.404,-82.13,-61.62,-119.67
11:19:21.550,-60.34,-61.91,-136.24
11:19:21.696,-51.83,-61.17,-138.66
11:19:21.892,-43.8,-61.88,-141.12
11:19:22.086,-36.82,-59.84,-142.12
11:19:22.282,-38.19,-54.95,-137.02
11:19:22.477,-33.94,-60.1,-138.42
11:19:22.673,-12.38,-63.73,-158.5
11:19:22.867,-3.58,-62.48,-170.49
11:19:23.062,0.69,-62.07,-177.37
11:19:23.256,5.8,-62.9,-179.77
11:19:23.500,6.42,-57.93,-168.02
11:19:23.695,-1.88,-46.85,-145.93
11:19:23.890,32.36,-36.46,-156.68
11:19:24.086,46.13,-32.17,-163.0
11:19:24.281,46.79,-27.56,-157.87
11:19:24.475,52.77,-27.6,-165.75
11:19:24.670,48.21,-40.58,-165.99
11:19:24.871,20.51,-49.62,-159.34
11:19:25.064,18.46,-38.19,-176.59
11:19:25.296,9.23,-17.71,170.48
11:19:25.453,7.49,5.55,151.8
11:19:25.646,10.31,13.24,141.93
11:19:25.840,16.08,7.53,140.54
11:19:26.035,13.43,3.94,137.2
11:19:26.230,11.54,-2.48,134.4
11:19:26.425,12.54,-10.07,131.69
11:19:26.668,14.43,-16.09,128.09
11:19:26.815,16.16,-17.67,126.34
11:19:27.059,17.1,-19.64,125.15
11:19:27.206,18.35,-19.11,125.28
11:19:27.449,16.93,-19.37,123.84
11:19:27.595,17.44,-19.95,122.33
11:19:27.839,17.01,-21.35,120.12
11:19:28.083,17.25,-21.45,118.42
11:19:28.230,16.1,-22.71,117.87
11:19:28.473,15.97,-21.08,118.89
11:19:28.620,17.67,-23.36,115.92
11:19:28.815,19.89,-24.13,113.11
11:19:29.009,21.55,-25.93,115.96
11:19:29.204,17.91,-29.16,122.69
11:19:29.399,21.56,-37.69,126.98
11:19:29.594,22.37,-29.85,146.51
11:19:29.792,22.35,-28.78,163.73
11:19:29.986,19.68,-17.61,-162.66
11:19:30.180,-174.26,-7.3,-139.63
11:19:30.375,-4.29,29.42,-164.71
11:19:30.571,3.54,6.55,162.92
11:19:30.815,-4.54,-8.54,-162.45
11:19:31.009,12.04,-15.51,-161.02
11:19:31.155,-0.57,-2.29,-153.84
11:19:31.349,-14.05,-27.92,-140.12
11:19:31.594,27.87,-36.61,179.78
11:19:31.741,51.39,-38.36,159.34
11:19:31.935,46.22,-45.55,149.98
11:19:32.179,44.72,-49.83,154.9
11:19:32.374,48.92,-65.83,146.81
11:19:32.569,53.01,-70.84,144.8
11:19:32.765,45.56,-73.41,146.24
11:19:33.010,57.81,-65.05,132.55
11:19:33.153,73.19,-60.44,112.46
11:19:33.350,73.05,-53.59,101.77
11:19:33.546,76.27,-45.93,88.64
11:19:33.739,82.1,-31.31,75.22
11:19:33.934,91.65,-21.38,66.84
11:19:34.129,89.3,-3.57,52.66
11:19:34.324,94.55,16.48,49.64
11:19:34.562,94.71,18.38,47.0
11:19:34.714,88.92,13.79,52.33
11:19:34.958,83.61,12.06,51.19
11:19:35.104,74.84,12.85,25.28
11:19:35.299,77.11,0.4,23.19
11:19:35.496,79.22,-5.12,13.89
11:19:35.691,84.84,-13.9,10.37
11:19:35.885,86.82,-15.58,8.92
11:19:36.081,84.53,-17.05,2.24
11:19:36.276,83.64,-17.33,-1.57
11:19:36.566,82.22,-16.25,-6.5
11:19:36.713,81.08,-15.27,-9.65
11:19:36.909,83.03,-13.66,-15.22
11:19:37.104,76.46,-14.81,-11.15
11:19:37.299,75.69,-6.91,12.81
11:19:37.493,79.35,4.75,40.18
11:19:37.687,62.17,14.04,31.75
11:19:37.883,46.19,15.47,16.95
11:19:38.078,54.44,24.76,2.31
11:19:38.273,29.59,14.7,-19.19
11:19:38.468,11.04,20.3,-28.67
11:19:38.663,3.46,11.41,-18.7
11:19:38.858,17.68,-7.54,-18.74
11:19:39.053,17.89,-10.64,-12.86
11:19:39.247,21.1,-4.42,0.48
11:19:39.443,28.76,3.58,7.96
11:19:39.638,29.56,2.12,4.74
11:19:39.834,35.13,-3.15,-1.41
11:19:40.027,34.93,-7.25,-6.07
11:19:40.223,40.15,5.73,-1.89
11:19:40.418,38.32,3.04,-4.4
11:19:40.661,37.4,6.46,-2.25
11:19:40.856,39.25,11.45,-3.31
11:19:41.053,41.43,15.26,-10.46
11:19:41.247,37.39,0.1,-21.42
11:19:41.443,38.63,6.24,-22.72
11:19:41.636,39.31,4.95,-29.48
11:19:41.831,36.72,3.34,-31.95
11:19:42.029,39.69,4.74,-31.35
11:19:42.222,38.71,4.54,-33.87
11:19:42.417,38.16,5.89,-36.16
11:19:42.612,38.75,6.24,-38.01
11:19:42.807,39.37,6.33,-40.0
11:19:43.007,39.43,6.35,-42.14
11:19:43.197,39.38,6.88,-45.52
11:19:43.440,38.91,7.33,-47.52
11:19:43.586,39.06,7.02,-49.92
11:19:43.785,38.94,6.91,-52.05
11:19:43.977,38.69,6.14,-54.33
11:19:44.172,39.37,6.01,-55.19
11:19:44.367,40.66,6.43,-56.27
11:19:44.562,41.26,6.51,-57.25
11:19:44.759,41.5,6.81,-56.93
11:19:45.001,40.22,9.48,-61.77
11:19:45.196,41.75,9.51,-60.99
11:19:45.390,42.25,10.47,-62.98
11:19:45.587,43.13,11.66,-63.85
11:19:45.781,42.88,11.81,-65.38
11:19:45.975,41.74,15.87,-62.78
11:19:46.171,42.34,14.98,-67.96
11:19:46.367,46.98,10.16,-66.31
11:19:46.561,50.7,-4.72,-70.96
11:19:46.755,50.0,-11.53,-61.32
11:19:46.951,47.01,-18.7,-61.71
11:19:47.146,52.89,-26.34,-68.47
11:19:47.342,56.6,-29.13,-70.61
11:19:47.536,54.73,-36.22,-86.25
11:19:47.731,44.55,-24.25,-88.73
11:19:47.927,42.82,-29.46,-102.19
11:19:48.121,44.12,-39.83,-116.64
11:19:48.315,40.85,-41.92,-121.19
11:19:48.511,43.91,-45.66,-129.23
11:19:48.756,39.59,-43.37,-129.97
11:19:48.949,38.11,-41.94,-128.84
11:19:49.097,34.7,-45.01,-130.6
11:19:49.340,26.26,-48.73,-131.07
11:19:49.537,26.76,-45.47,-132.65
11:19:49.730,29.42,-46.01,-135.4
11:19:49.973,26.61,-43.43,-133.76
11:19:50.119,26.63,-42.64,-136.0
11:19:50.314,25.66,-41.27,-137.99
11:19:50.509,25.51,-40.6,-139.7
11:19:50.754,25.47,-39.04,-140.41
11:19:50.997,25.45,-39.17,-143.15
11:19:51.094,24.54,-39.32,-145.53
11:19:51.290,24.4,-39.4,-147.91
11:19:51.484,24.33,-39.82,-150.32
11:19:51.680,24.56,-39.36,-152.39
11:19:51.916,24.68,-36.03,-152.48
11:19:52.069,24.44,-35.94,-155.0
11:19:52.313,22.08,-36.15,-157.77
11:19:52.460,22.9,-36.2,-160.42
11:19:52.655,21.92,-38.56,-162.48
11:19:52.850,22.99,-38.77,-165.68
11:19:53.045,23.15,-38.31,-167.49
11:19:53.240,23.53,-38.31,-169.82
11:19:53.435,23.33,-38.61,-172.48
11:19:53.680,23.11,-38.59,-174.89
11:19:53.874,22.26,-38.91,-176.62
11:19:54.067,22.56,-38.81,-178.98
11:19:54.265,22.31,-38.87,178.73
11:19:54.459,24.16,-37.37,175.81
11:19:54.654,23.99,-37.59,174.61
11:19:54.849,23.03,-38.57,171.94
11:19:55.045,24.77,-38.91,169.37
11:19:55.239,23.04,-40.28,166.22
11:19:55.434,23.18,-41.2,163.34
11:19:55.629,23.05,-41.32,160.45
11:19:55.824,22.35,-42.77,159.15
11:19:56.018,24.11,-43.3,156.77
11:19:56.214,21.46,-41.82,153.89
11:19:56.409,21.14,-42.62,151.16
11:19:56.604,19.7,-42.43,150.65
11:19:56.848,17.85,-42.53,151.33
11:19:56.993,17.82,-41.88,149.84
11:19:57.191,18.03,-41.88,147.84
11:19:57.384,18.39,-41.88,145.18
11:19:57.579,18.65,-41.67,142.81
11:19:57.774,18.36,-41.3,140.45
11:19:58.017,18.04,-41.22,138.61
11:19:58.253,18.38,-41.26,136.02
11:19:58.407,18.32,-41.08,133.79
11:19:58.602,18.73,-40.88,131.49
11:19:58.799,18.36,-40.52,129.5
11:19:58.992,18.55,-40.33,127.15
11:19:59.236,18.9,-40.37,124.64
11:19:59.383,18.78,-40.23,122.34
11:19:59.577,18.96,-40.23,120.03
11:19:59.772,18.97,-40.26,117.76
11:19:59.967,19.1,-40.37,115.39
11:20:00.161,18.98,-40.39,113.23
11:20:00.356,19.1,-40.2,110.9
11:20:00.553,18.99,-40.4,109.06
11:20:00.748,19.23,-40.18,106.36
11:20:00.942,22.72,-38.76,105.97
11:20:01.137,20.6,-41.6,105.69
11:20:01.332,19.53,-39.12,104.77
11:20:01.575,22.97,-40.82,100.95
11:20:01.723,23.07,-39.26,99.97
11:20:01.919,21.42,-40.72,97.11
11:20:02.113,20.05,-40.15,95.72
11:20:02.356,20.27,-41.12,93.22
11:20:02.601,19.94,-39.48,91.76
11:20:02.747,19.93,-39.15,88.93
11:20:02.990,20.11,-37.7,87.63
11:20:03.136,20.74,-37.62,85.21
11:20:03.332,21.9,-36.24,82.44
11:20:03.527,20.49,-35.76,81.25
11:20:03.722,21.74,-36.37,77.65
11:20:03.916,18.9,-36.33,76.42
11:20:04.111,19.02,-37.2,75.0
11:20:04.309,20.75,-37.92,74.89
11:20:04.501,22.06,-38.84,69.78
11:20:04.698,23.55,-42.95,61.53
11:20:04.892,25.4,-40.37,58.65
11:20:05.087,24.98,-41.65,57.2
11:20:05.330,21.39,-40.19,55.59
11:20:05.476,23.56,-38.64,54.35
11:20:05.671,20.86,-35.31,52.46
11:20:05.866,21.34,-30.97,51.04
11:20:06.110,22.13,-28.27,50.98
11:20:06.256,19.26,-30.89,48.8
11:20:06.451,21.08,-29.32,46.41
11:20:06.744,19.66,-30.41,44.56
11:20:06.890,19.45,-26.85,39.53
11:20:07.085,21.09,-28.96,38.9
11:20:07.280,20.13,-29.85,37.2
11:20:07.475,19.97,-29.61,35.28
11:20:07.670,19.54,-30.39,33.18
11:20:07.865,18.87,-30.76,30.57
11:20:08.060,18.81,-30.55,28.42
11:20:08.255,19.36,-31.14,26.4
11:20:08.450,19.56,-31.22,23.87
11:20:08.645,18.31,-32.02,22.76
11:20:08.839,8.06,-27.89,38.37
11:20:09.034,-1.23,-35.6,55.47
11:20:09.230,-4.27,-39.71,59.17
11:20:09.473,1.66,-39.07,53.72
11:20:09.621,-1.96,-35.71,54.6
11:20:09.816,1.55,-34.1,51.0
11:20:10.012,1.65,-32.58,52.01
11:20:10.253,2.85,-31.27,49.39
11:20:10.401,3.61,-23.83,40.86
11:20:10.595,5.81,-22.76,41.17
11:20:10.792,1.91,-24.2,45.99
11:20:11.035,6.66,-25.01,39.77
11:20:11.230,5.78,-19.77,32.86
11:20:11.425,9.81,-15.59,27.14
11:20:11.619,6.34,-22.35,25.64
11:20:11.864,8.49,-18.45,24.22
11:20:12.058,8.94,-11.95,20.85
11:20:12.302,9.59,-12.52,19.85
11:20:12.399,9.34,-12.46,17.49
11:20:12.643,10.05,-11.99,15.52
11:20:12.789,11.42,-11.4,13.5
11:20:12.984,9.62,-9.86,10.55
11:20:13.179,9.25,-8.19,7.7
11:20:13.374,9.12,-5.96,5.26
11:20:13.569,9.33,-8.69,4.84
11:20:13.812,9.35,-9.73,3.04
11:20:13.959,8.93,-10.34,1.52
11:20:14.202,8.55,-11.29,0.07
11:20:14.349,8.52,-11.54,-1.44
11:20:14.544,8.51,-11.85,-2.9
11:20:14.741,8.49,-12.36,-4.74
11:20:14.934,8.81,-13.4,-6.77
11:20:15.228,8.05,-13.59,-7.96
11:20:15.373,8.43,-13.12,-9.71
11:20:15.568,8.56,-13.67,-11.3
11:20:15.764,8.81,-13.12,-13.91
11:20:16.005,8.35,-12.69,-15.63
11:20:16.154,7.86,-13.8,-16.57
11:20:16.348,7.58,-13.39,-17.73
11:20:16.542,7.69,-12.37,-19.92
11:20:16.787,7.51,-12.25,-21.77
11:20:16.933,6.93,-11.25,-22.45
11:20:17.127,6.99,-10.58,-24.59
11:20:17.323,9.66,-11.78,-29.44
11:20:17.567,10.15,-13.77,-30.87
11:20:17.715,9.92,-14.45,-33.69
11:20:17.956,9.17,-16.55,-36.56
11:20:18.103,12.24,-16.91,-39.47
11:20:18.298,11.06,-17.23,-42.73
11:20:18.492,10.58,-18.43,-44.52
11:20:18.687,11.09,-19.01,-45.82
11:20:18.883,10.39,-19.6,-48.16
11:20:19.078,11.62,-18.97,-49.26
11:20:19.273,11.87,-19.1,-51.42
11:20:19.517,11.81,-19.01,-52.61
11:20:19.712,16.99,-23.87,-53.92
11:20:19.907,24.77,-20.17,-51.85
11:20:20.103,25.51,-24.0,-57.8
11:20:20.295,23.78,-23.35,-61.11
11:20:20.496,17.38,-26.41,-64.21
11:20:20.686,18.36,-25.66,-66.75
11:20:20.881,18.72,-24.86,-68.79
11:20:21.077,19.06,-24.98,-70.87
11:20:21.312,18.44,-24.72,-71.92
11:20:21.467,18.77,-24.87,-73.9
11:20:21.681,24.98,-27.68,-78.09
11:20:21.905,27.48,-27.89,-80.4
11:20:22.052,23.34,-29.72,-82.6
11:20:22.247,22.02,-29.12,-85.41
11:20:22.442,21.9,-29.3,-87.25
11:20:22.637,21.94,-28.75,-89.08
11:20:22.833,23.9,-29.25,-90.66
11:20:23.027,29.39,-29.53,-90.63
11:20:23.222,29.75,-29.3,-93.6
11:20:23.417,29.98,-26.53,-93.44
11:20:23.613,28.66,-24.54,-94.82
11:20:23.855,29.32,-24.24,-98.38
11:20:24.050,26.19,-25.88,-100.8
11:20:24.248,25.63,-25.29,-102.52
11:20:24.441,25.12,-23.86,-106.45
11:20:24.637,22.96,-22.9,-108.84
11:20:24.879,23.49,-22.94,-110.19
11:20:25.026,22.55,-23.1,-110.45
11:20:25.222,22.76,-21.82,-111.57
11:20:25.415,22.14,-22.45,-113.01
11:20:25.660,23.35,-22.57,-116.68
11:20:25.806,22.36,-23.14,-118.21
11:20:26.050,23.6,-22.3,-120.09
11:20:26.196,26.89,-22.32,-124.98
11:20:26.391,23.77,-6.87,-130.04
11:20:26.587,9.14,-19.37,-147.47
11:20:26.829,12.75,-12.84,-142.8
11:20:26.976,33.13,-4.21,-143.84
11:20:27.219,43.72,1.61,-141.08
11:20:27.365,53.96,-1.08,-136.06
11:20:27.561,54.6,3.79,-129.43
11:20:27.758,55.44,7.73,-122.13
11:20:27.950,54.69,5.41,-126.58
11:20:28.195,54.97,4.61,-128.86
11:20:28.389,50.28,1.77,-136.75
11:20:28.584,49.62,2.61,-140.05
11:20:28.780,50.25,0.37,-147.17
11:20:28.974,48.59,3.16,-151.3
11:20:29.169,46.85,2.12,-154.19
11:20:29.365,45.62,1.41,-154.25
11:20:29.560,45.48,-8.07,-158.82
11:20:29.754,47.36,-10.41,-158.43
11:20:29.950,48.01,-6.61,-159.35
11:20:30.193,48.89,-6.03,-161.98
11:20:30.339,45.53,-2.34,-169.94
11:20:30.534,46.35,-2.06,-173.79
11:20:30.729,44.8,0.58,-176.2
11:20:30.924,44.07,-0.83,-178.56
11:20:31.120,41.58,0.96,177.86
11:20:31.315,43.26,-0.32,175.03
11:20:31.510,43.7,-2.75,173.87
11:20:31.704,44.27,-4.46,172.64
11:20:31.899,44.09,-5.72,170.76
11:20:32.096,44.25,-5.64,169.83
11:20:32.290,44.7,-5.1,167.17
11:20:32.535,44.43,-5.65,165.53
11:20:32.729,44.28,-7.07,165.88
11:20:32.926,45.41,-7.43,163.93
11:20:33.120,45.07,-6.33,162.97
11:20:33.313,44.62,-6.35,160.61
11:20:33.509,45.51,-5.93,158.29
11:20:33.703,46.69,-6.36,155.38
11:20:33.898,45.09,-6.02,154.07
11:20:34.142,46.77,-3.22,154.26
11:20:34.289,46.58,-2.39,152.71
11:20:34.533,46.08,-1.74,150.72
11:20:34.678,44.05,-1.7,148.38
11:20:34.875,45.09,-2.02,145.62
11:20:35.068,43.52,-1.62,142.41
11:20:35.263,42.18,-2.57,138.87
11:20:35.458,44.01,-4.39,137.46
11:20:35.653,42.95,-3.31,134.87
11:20:35.848,43.27,-2.48,132.3
11:20:36.043,42.98,-2.72,130.09
11:20:36.238,44.46,-3.01,128.34
11:20:36.433,47.0,-4.87,124.3
11:20:36.627,45.43,-4.08,122.75
11:20:36.872,43.61,-2.17,119.13
11:20:37.071,41.32,-2.22,117.28
11:20:37.263,43.95,-5.49,117.57
11:20:37.457,43.91,-5.74,112.92
11:20:37.652,44.31,-5.13,111.27
11:20:37.896,44.03,-3.35,108.59
11:20:38.042,42.98,-5.01,107.43
11:20:38.237,41.79,-8.73,113.79
11:20:38.431,38.02,-5.54,113.25
11:20:38.627,39.41,-1.96,111.44
11:20:38.824,41.4,-4.2,108.74
11:20:39.017,39.63,-3.43,107.4
11:20:39.212,37.87,-3.49,101.92
11:20:39.407,38.85,-1.45,98.58
11:20:39.602,38.0,-2.13,98.05
11:20:39.796,39.12,-2.18,95.06
11:20:39.992,38.72,-2.05,91.52
11:20:40.187,38.5,-2.09,89.78
11:20:40.381,38.75,-2.77,86.77
11:20:40.576,38.5,-2.99,84.09
11:20:40.772,38.65,-2.96,82.0
11:20:40.967,38.44,-3.17,79.9
11:20:41.211,38.28,-3.18,77.62
11:20:41.407,38.11,-3.34,75.13
11:20:41.600,38.05,-3.49,73.14
11:20:41.799,37.96,-3.58,70.85
11:20:41.990,38.01,-3.67,68.78
11:20:42.185,38.15,-3.62,66.62
11:20:42.381,38.25,-3.42,64.57
11:20:42.576,38.27,-3.12,62.24
11:20:42.772,38.2,-3.05,60.05
11:20:42.967,38.23,-3.0,57.76
11:20:43.162,39.31,-2.03,52.59
11:20:43.356,39.3,-2.2,49.89
11:20:43.552,39.4,-2.49,47.82
11:20:43.746,39.39,-2.79,45.54
11:20:43.942,39.23,-3.13,43.28
11:20:44.136,39.12,-3.26,40.88
11:20:44.331,38.6,-3.71,38.92
11:20:44.527,38.61,-3.95,36.58
11:20:44.721,38.65,-3.92,34.2
11:20:44.916,38.8,-3.98,31.97
11:20:45.111,38.82,-4.21,29.77
11:20:45.306,38.99,-4.46,27.44
11:20:45.549,39.19,-4.84,25.1
11:20:45.745,39.27,-4.75,22.93
11:20:45.938,39.21,-4.8,20.91
11:20:46.133,39.23,-4.84,18.87
11:20:46.328,39.28,-4.81,16.75
11:20:46.590,39.25,-4.97,14.48
11:20:46.719,39.31,-5.08,12.41
11:20:46.914,39.56,-5.24,10.34
11:20:47.110,39.7,-5.17,8.15
11:20:47.305,39.65,-5.11,5.91
11:20:47.500,39.77,-5.3,3.81
11:20:47.694,39.64,-5.47,1.54
11:20:47.890,39.33,-5.56,-0.76
11:20:48.085,39.22,-5.59,-2.8
11:20:48.279,39.15,-5.4,-4.94
11:20:48.477,39.35,-5.29,-7.19
11:20:48.670,39.45,-5.4,-9.4
11:20:48.867,39.2,-5.48,-11.71
11:20:49.061,39.43,-5.52,-13.88
11:20:49.256,39.34,-5.51,-16.15
11:20:49.451,39.49,-5.19,-18.19
11:20:49.694,39.73,-5.47,-20.38
11:20:49.889,39.99,-5.51,-22.62
11:20:50.085,40.08,-5.5,-24.78
11:20:50.281,40.08,-5.33,-26.85
11:20:50.474,39.93,-5.37,-28.99
11:20:50.719,39.77,-5.4,-31.13
11:20:50.865,39.33,-5.81,-33.44
11:20:51.060,38.43,-5.88,-36.72
11:20:51.255,40.74,-5.45,-31.97
11:20:51.449,41.5,-5.23,-35.34
11:20:51.743,41.55,-6.21,-43.41
11:20:51.888,41.69,-5.42,-49.2
11:20:52.033,37.69,-6.03,-50.06
11:20:52.229,38.46,-15.61,-66.21
11:20:52.424,31.89,-6.75,-50.41
11:20:52.618,38.34,-17.8,-57.17
11:20:52.813,40.63,-15.64,-63.68
11:20:53.008,45.74,-13.07,-65.97
11:20:53.203,42.92,-11.64,-67.43
11:20:53.398,42.25,-11.68,-70.36
11:20:53.594,42.3,-11.19,-72.15
11:20:53.789,42.18,-11.04,-74.17
11:20:54.033,41.47,-10.91,-76.95
11:20:54.227,40.87,-10.56,-79.16
11:20:54.422,40.57,-10.19,-81.88
11:20:54.617,40.42,-10.61,-85.52
11:20:54.813,39.79,-10.08,-87.15
11:20:55.008,39.34,-9.66,-89.78
11:20:55.203,39.73,-9.12,-91.56
11:20:55.398,39.62,-8.92,-93.49
11:20:55.593,40.13,-9.56,-95.2
11:20:55.837,40.3,-9.56,-96.29
11:20:55.983,40.42,-9.18,-98.98
11:20:56.178,40.13,-9.13,-100.88
11:20:56.421,39.28,-8.91,-103.24
11:20:56.570,39.35,-9.0,-105.72
11:20:56.763,39.34,-9.23,-109.13
11:20:56.960,38.86,-10.03,-110.4
11:20:57.154,38.09,-9.28,-112.85
11:20:57.396,37.91,-10.34,-115.14
11:20:57.545,38.98,-11.64,-116.47
11:20:57.739,38.08,-11.09,-120.08
11:20:57.933,38.91,-11.88,-121.06
11:20:58.177,39.58,-11.95,-121.95
11:20:58.372,40.26,-12.81,-121.6
11:20:58.569,41.93,-11.0,-126.06
11:20:58.763,42.42,-8.25,-127.2
11:20:58.956,40.93,-7.19,-129.66
11:20:59.153,41.04,-7.79,-132.22
11:20:59.348,39.87,-9.77,-134.88
11:20:59.542,42.23,-11.26,-137.87
11:20:59.738,41.74,-9.65,-139.44
11:20:59.932,41.0,-8.77,-141.59
11:21:00.127,40.08,-9.0,-144.62
11:21:00.321,41.29,-9.73,-146.64
11:21:00.565,41.17,-11.25,-147.5
11:21:00.712,39.24,-10.62,-149.76
11:21:00.907,37.23,-9.78,-152.52
11:21:01.101,38.75,-9.49,-153.37
11:21:01.297,41.63,-11.39,-156.68
11:21:01.492,41.49,-10.77,-159.51
11:21:01.686,40.06,-9.1,-161.98
11:21:01.882,39.34,-8.71,-163.35
11:21:02.078,40.83,-9.56,-166.14
11:21:02.271,41.92,-10.49,-165.98
11:21:02.465,40.75,-8.68,-167.93
11:21:02.709,39.02,-7.03,-170.87
11:21:02.906,39.57,-8.31,-171.86
11:21:03.101,42.09,-10.9,-175.1
11:21:03.296,41.23,-10.01,-177.0
11:21:03.491,39.21,-8.34,-179.92
11:21:03.685,38.09,-7.5,177.23
11:21:03.880,37.57,-8.33,174.75
11:21:04.075,39.43,-9.97,173.17
11:21:04.269,39.64,-7.95,172.51
11:21:04.464,38.92,-6.47,169.48
11:21:04.660,39.04,-6.52,167.1
11:21:04.856,41.17,-6.98,163.75
11:21:05.048,40.43,-8.47,162.71
11:21:05.245,38.75,-7.83,160.59
11:21:05.440,37.32,-6.4,158.02
11:21:05.634,37.88,-6.49,154.5
11:21:05.830,38.94,-7.49,152.03
11:21:06.025,37.91,-7.32,150.76
11:21:06.221,36.72,-7.19,147.97
11:21:06.414,36.67,-7.89,145.49
11:21:06.611,37.87,-7.39,143.06
11:21:06.806,37.12,-7.34,140.25
11:21:07.050,34.41,-5.79,138.1
11:21:07.245,34.62,-5.19,137.53
11:21:07.439,36.72,-6.19,134.36
11:21:07.635,36.89,-6.19,131.63
11:21:07.830,36.72,-6.75,129.64
11:21:08.024,35.67,-6.69,126.3
11:21:08.220,36.25,-7.71,123.71
11:21:08.416,38.19,-9.85,121.75
11:21:08.609,38.36,-10.07,121.48
11:21:08.806,36.62,-8.57,119.37
11:21:09.000,37.03,-8.94,117.74
11:21:09.195,39.67,-11.94,114.98
11:21:09.391,39.7,-12.08,113.69
11:21:09.585,38.05,-9.78,110.04
11:21:09.779,37.7,-9.96,108.51
11:21:09.975,39.22,-11.54,106.41
11:21:10.169,39.19,-13.69,104.41
11:21:10.364,36.86,-10.65,103.29
11:21:10.561,37.04,-9.07,100.09
11:21:10.755,37.85,-9.23,97.76
11:21:10.948,38.92,-11.11,96.18
11:21:11.144,38.7,-8.93,95.27
11:21:11.389,35.88,-8.9,93.09
11:21:11.582,36.73,-9.01,90.81
11:21:11.778,39.68,-10.8,87.9
11:21:11.972,39.68,-9.68,85.94
11:21:12.170,38.5,-9.35,83.5
11:21:12.362,38.59,-9.27,81.36
11:21:12.557,41.43,-12.19,78.22
11:21:12.752,41.67,-12.18,76.53
11:21:12.947,39.54,-11.11,73.28
11:21:13.143,38.73,-11.07,71.34
11:21:13.338,41.23,-13.43,68.54
11:21:13.533,41.04,-14.32,67.14
11:21:13.728,38.88,-12.18,63.91
11:21:13.923,38.68,-11.89,62.57
11:21:14.118,40.0,-12.69,60.14
11:21:14.314,39.83,-14.38,58.51
11:21:14.509,37.52,-12.43,55.29
11:21:14.704,37.23,-11.48,53.17
11:21:14.899,38.66,-12.14,51.13
11:21:15.095,38.62,-14.12,48.61
11:21:15.385,36.84,-12.62,47.76
11:21:15.484,34.77,-11.77,45.23
11:21:15.725,36.29,-12.24,44.26
11:21:15.922,38.3,-14.13,41.65
11:21:16.117,38.29,-11.86,40.8
11:21:16.359,37.17,-9.89,37.71
11:21:16.505,37.77,-9.96,35.83
11:21:16.700,39.82,-12.61,34.28
11:21:16.896,39.46,-11.47,32.56
11:21:17.091,37.99,-10.09,30.39
11:21:17.289,37.52,-10.21,28.72
11:21:17.484,39.78,-11.82,25.22
11:21:17.677,40.25,-11.8,22.6
11:21:17.872,38.69,-11.04,20.95
11:21:18.068,36.85,-10.43,18.4
11:21:18.264,38.32,-10.76,15.68
11:21:18.458,38.03,-12.28,14.31
11:21:18.654,36.37,-10.78,12.62
11:21:18.849,35.16,-10.18,10.54
11:21:19.044,36.32,-10.0,7.43
11:21:19.239,38.49,-11.75,6.27
11:21:19.435,37.63,-10.49,4.44
11:21:19.629,36.5,-10.02,3.55
11:21:19.873,35.88,-9.56,2.74
11:21:20.068,35.69,-10.28,2.16
11:21:20.263,34.78,-10.82,4.58
11:21:20.457,36.89,-10.11,1.84
11:21:20.653,35.57,-12.69,-1.45
11:21:20.847,25.31,-10.0,6.14
11:21:21.041,12.55,-7.24,8.89
11:21:21.236,19.77,-12.27,9.56
11:21:21.432,-7.48,-7.28,-1.69
11:21:21.628,-24.1,-5.47,-8.64
11:21:21.823,-21.76,-11.68,-14.58
11:21:22.017,-9.39,-11.76,-19.07
11:21:22.212,-8.92,-15.76,-17.66
11:21:22.408,-12.1,-22.61,-15.04
11:21:22.601,-9.12,-20.88,-13.28
11:21:22.797,-6.81,-18.06,-8.87
11:21:22.992,-7.51,-11.59,-19.24
11:21:23.189,-3.36,-19.94,-36.59
11:21:23.382,-21.93,-17.24,-33.33
11:21:23.576,-24.26,-9.2,-24.18
11:21:23.771,-15.29,-4.16,-10.63
11:21:24.016,-5.59,-9.89,-13.41
11:21:24.211,-4.67,-18.82,-17.17
11:21:24.407,4.4,-12.58,-20.49
11:21:24.602,-5.35,-13.51,-19.74
11:21:24.797,-8.79,-10.93,-15.3
11:21:24.990,-9.54,-12.95,-13.86
11:21:25.187,-8.31,-11.49,-19.54
11:21:25.382,-7.99,-13.21,-20.06
11:21:25.576,-7.52,-12.75,-20.8
11:21:25.771,-8.33,-12.65,-22.52
11:21:25.965,-7.96,-12.42,-23.62
11:21:26.162,-7.62,-12.05,-25.31
11:21:26.406,-7.65,-11.98,-26.84
11:21:26.600,-13.56,-3.73,-39.53
11:21:26.747,-21.16,5.25,-37.26
11:21:26.941,-22.23,3.46,-33.26
11:21:27.137,-17.39,-1.79,-39.24
11:21:27.380,-18.47,-2.86,-40.25
11:21:27.527,-16.58,-3.58,-41.63
11:21:27.723,-17.07,-2.9,-43.58
11:21:27.916,-17.1,-3.52,-44.14
11:21:28.111,-17.37,-4.37,-44.42
11:21:28.307,-17.49,-4.31,-47.29
11:21:28.551,-15.0,-3.92,-45.44
11:21:28.744,-16.9,-4.66,-48.32
11:21:28.941,-16.28,-5.12,-49.73
11:21:29.136,-16.82,-5.86,-51.23
11:21:29.331,-17.8,-8.41,-53.86
11:21:29.524,-21.49,-12.45,-57.48
11:21:29.721,-23.77,-8.27,-58.75
11:21:29.915,-19.18,-11.22,-56.63
11:21:30.111,-18.65,-12.12,-58.73
11:21:30.306,-18.96,-13.73,-59.52
11:21:30.501,-19.41,-13.78,-62.83
11:21:30.694,-18.38,-13.81,-64.54
11:21:30.890,-17.97,-13.63,-66.26
11:21:31.086,-17.84,-13.06,-68.07
11:21:31.280,-17.28,-13.19,-69.93
11:21:31.476,-17.34,-12.21,-70.81
11:21:31.670,-16.92,-12.42,-72.89
11:21:31.865,-17.13,-12.14,-74.75
11:21:32.061,-17.28,-11.43,-76.73
11:21:32.255,-17.37,-11.54,-77.96
11:21:32.449,-17.19,-11.53,-80.07
11:21:32.646,-17.06,-11.42,-82.07
11:21:32.888,-17.68,-11.57,-83.72
11:21:33.085,-16.7,-11.97,-85.31
11:21:33.278,-17.09,-11.88,-87.51
11:21:33.474,-16.7,-12.11,-89.28
11:21:33.670,-16.35,-12.03,-91.52
11:21:33.864,-16.64,-11.82,-93.05
11:21:34.060,-16.85,-11.59,-94.78
11:21:34.255,-16.56,-10.98,-97.27
11:21:34.450,-16.48,-11.38,-98.94
11:21:34.692,-16.39,-11.47,-100.82
11:21:34.839,-16.56,-11.89,-102.55
11:21:35.033,-16.83,-11.82,-103.88
11:21:35.230,-16.93,-11.92,-106.05
11:21:35.425,-16.79,-11.57,-107.78
11:21:35.619,-17.59,-12.21,-109.17
11:21:35.815,-17.18,-12.68,-110.82
11:21:36.108,-17.18,-13.0,-111.26
11:21:36.205,-15.58,-10.32,-111.62
11:21:36.400,-12.68,-10.9,-110.83
11:21:36.593,-13.48,-7.61,-114.07
11:21:36.788,-14.88,-4.48,-116.28
11:21:36.982,-14.38,-3.13,-115.78
11:21:37.228,-13.6,-1.89,-117.79
11:21:37.422,-12.88,-0.92,-119.35
11:21:37.617,-12.71,-3.85,-121.52
11:21:37.811,-12.33,-2.97,-123.12
11:21:38.007,-12.41,-2.28,-124.73
11:21:38.201,-12.21,-3.49,-126.09
11:21:38.394,-10.85,-3.09,-127.31
11:21:38.590,-10.66,-4.21,-132.83
11:21:38.786,-10.85,-3.29,-134.02
11:21:38.981,-10.77,-3.48,-135.64
11:21:39.176,-9.98,-3.48,-137.4
11:21:39.371,-8.24,-3.11,-141.65
11:21:39.566,-6.68,-6.81,-143.64
11:21:39.761,0.56,-9.37,-143.19
11:21:39.956,5.82,-6.85,-145.33
11:21:40.152,7.61,-3.39,-149.61
11:21:40.345,6.78,0.04,-150.11
11:21:40.542,8.4,4.73,-148.58
11:21:40.736,7.67,6.07,-149.14
11:21:40.932,3.34,7.42,-145.73
11:21:41.127,-4.09,2.86,-145.2
11:21:41.322,-2.51,8.92,-129.38
11:21:41.566,9.44,15.52,-146.8
11:21:41.759,13.41,38.89,-144.06
11:21:41.955,11.52,35.46,-147.91
11:21:42.150,5.58,38.57,-151.93
11:21:42.345,6.34,31.24,-154.24
11:21:42.541,4.7,32.39,-155.26
11:21:42.736,6.07,30.81,-156.96
11:21:42.931,6.96,31.79,-159.97
11:21:43.126,6.24,30.78,-163.73
11:21:43.321,5.68,31.52,-165.87
11:21:43.515,6.84,31.32,-168.11
11:21:43.709,8.3,31.8,-170.54
11:21:43.906,3.42,32.41,178.77
11:21:44.100,2.09,30.28,171.7
11:21:44.294,0.83,30.53,172.06
11:21:44.539,2.12,27.53,167.68
11:21:44.685,1.85,25.23,163.62
11:21:44.880,1.01,25.99,161.74
11:21:45.074,2.49,24.89,160.2
11:21:45.269,-2.4,27.81,157.65
11:21:45.464,-4.41,25.74,153.23
11:21:45.660,4.72,22.43,153.32
11:21:45.904,1.43,19.77,151.49
11:21:46.098,2.28,18.73,150.24
11:21:46.293,2.08,20.25,147.45
11:21:46.488,2.5,18.95,146.8
11:21:46.683,2.61,18.29,144.94
11:21:46.878,2.43,18.47,143.19
11:21:47.074,3.27,17.9,141.96
11:21:47.269,3.03,18.47,140.58
11:21:47.463,3.38,17.88,139.13
11:21:47.658,3.1,18.04,137.72
11:21:47.854,3.1,17.59,135.98
11:21:48.049,3.29,16.7,135.14
11:21:48.244,1.93,14.72,134.61
11:21:48.486,2.07,15.83,133.61
11:21:48.634,0.95,20.96,126.39
11:21:48.830,-2.61,21.75,120.64
11:21:49.071,0.63,21.11,120.6
11:21:49.219,-1.48,20.2,117.92
11:21:49.415,0.12,19.34,116.36
11:21:49.609,0.8,18.46,113.59
11:21:49.805,-0.87,17.18,109.13
11:21:49.999,2.21,16.18,109.18
11:21:50.244,3.15,14.94,106.83
11:21:50.439,10.29,13.66,108.19
11:21:50.632,8.95,13.4,105.64
11:21:50.829,9.2,11.65,101.59
11:21:51.024,7.67,14.01,99.34
11:21:51.218,7.54,13.8,97.44
11:21:51.413,6.3,13.3,95.01
11:21:51.608,6.41,12.72,93.41
11:21:51.804,6.78,12.81,91.78
11:21:51.999,7.42,12.42,90.31
11:21:52.193,6.48,12.78,88.42
11:21:52.389,7.84,13.02,86.49
11:21:52.582,8.32,12.86,85.24
11:21:52.778,7.63,13.12,84.02
11:21:52.973,8.13,13.67,81.49
11:21:53.167,8.34,13.84,79.86
11:21:53.362,6.33,14.31,78.12
11:21:53.558,6.07,15.86,75.94
11:21:53.752,6.58,14.09,73.35
11:21:53.947,5.46,15.31,72.36
11:21:54.141,4.72,15.57,69.77
11:21:54.386,4.89,16.03,68.89
11:21:54.583,2.37,17.53,68.02
11:21:54.777,-3.37,21.57,63.51
11:21:54.971,-3.27,22.01,61.96
11:21:55.166,-3.74,20.71,60.1
11:21:55.362,-4.64,21.05,58.59
11:21:55.556,-6.35,21.76,54.67
11:21:55.800,-5.74,22.9,53.92
11:21:55.945,-4.89,21.97,53.16
11:21:56.141,-4.73,21.46,51.41
11:21:56.335,-3.39,20.81,49.93
11:21:56.531,-3.1,20.02,48.94
11:21:56.726,-2.51,19.53,48.7
11:21:56.921,-2.69,19.92,48.08
11:21:57.116,-2.32,19.84,46.15
11:21:57.310,-2.53,20.14,44.05
11:21:57.507,-1.67,19.75,42.33
11:21:57.703,-3.15,21.38,41.62
11:21:57.944,-1.94,21.4,40.31
11:21:58.139,-2.25,21.25,38.14
11:21:58.286,-2.19,21.21,36.37
11:21:58.482,-2.06,21.12,34.98
11:21:58.725,-1.8,21.69,35.81
11:21:58.920,-0.15,20.27,35.54
11:21:59.166,-2.82,20.27,31.48
11:21:59.311,-3.26,22.63,31.41
11:21:59.505,-2.6,21.74,31.88
11:21:59.700,-1.91,19.69,29.61
11:21:59.897,-0.09,18.51,28.36
11:22:00.090,1.7,16.81,28.14
11:22:00.286,1.4,16.35,25.44
11:22:00.480,4.96,18.22,25.53
11:22:00.675,4.48,17.98,21.73
11:22:00.870,4.55,18.33,20.47
11:22:01.065,4.08,18.58,18.27
11:22:01.260,4.48,18.96,16.93
11:22:01.455,3.98,19.22,15.29
11:22:01.650,3.61,19.9,13.32
11:22:01.845,5.06,18.78,11.62
11:22:02.040,4.32,19.02,9.51
11:22:02.236,4.86,18.56,8.47
11:22:02.430,5.55,19.53,7.76
11:22:02.625,3.91,20.36,5.78
11:22:02.821,6.03,21.35,5.11
11:22:03.064,5.16,19.49,0.37
11:22:03.258,5.35,20.28,2.9
11:22:03.453,9.01,18.88,3.42
11:22:03.649,9.37,19.42,0.49
11:22:03.843,8.22,19.91,-3.46
11:22:04.039,8.28,19.22,-6.03
11:22:04.234,9.27,19.4,-6.78
11:22:04.476,8.6,19.3,-8.95
11:22:04.625,8.44,19.23,-10.78
11:22:04.818,8.56,18.68,-12.6
11:22:05.015,7.84,19.1,-14.47
11:22:05.211,8.51,19.13,-15.75
11:22:05.404,7.67,21.38,-18.46
11:22:05.599,7.8,22.34,-18.88
11:22:05.794,5.37,21.94,-21.05
11:22:05.990,8.5,20.45,-22.29
11:22:06.185,6.0,19.64,-24.73
11:22:06.380,6.66,19.53,-25.98
11:22:06.575,6.98,19.67,-27.65
11:22:06.770,7.02,19.59,-29.74
11:22:07.014,7.92,19.79,-30.91
11:22:07.159,7.49,20.07,-33.02
11:22:07.403,7.53,20.33,-35.07
11:22:07.599,6.92,20.2,-37.47
11:22:07.793,7.77,20.43,-38.2
11:22:07.987,6.87,20.49,-40.95
11:22:08.182,6.99,19.93,-43.01
11:22:08.377,5.21,20.33,-45.61
11:22:08.572,4.86,19.99,-48.0
11:22:08.767,4.63,19.78,-49.26
11:22:08.962,4.72,19.53,-51.02
11:22:09.157,5.28,19.61,-52.46
11:22:09.353,5.44,19.78,-54.29
11:22:09.595,5.34,19.78,-56.1
11:22:09.793,5.35,19.71,-58.0
11:22:09.937,5.61,19.72,-59.48
11:22:10.135,5.84,19.79,-61.31
11:22:10.329,5.84,19.76,-63.04
11:22:10.525,5.76,19.79,-64.97
11:22:10.719,5.79,19.9,-66.75
11:22:10.914,5.79,19.74,-68.38
11:22:11.110,5.87,19.63,-70.19
11:22:11.304,5.89,19.8,-72.02
11:22:11.499,5.71,20.03,-73.93
11:22:11.743,5.67,20.08,-75.45
11:22:11.938,5.48,19.99,-77.76
11:22:12.134,5.56,20.18,-79.38
11:22:12.327,5.17,20.22,-81.14
11:22:12.524,5.46,20.14,-82.72
11:22:12.717,5.46,20.06,-84.28
11:22:12.914,5.46,19.97,-86.16
11:22:13.109,5.31,19.98,-87.83
11:22:13.304,5.53,19.92,-89.41
11:22:13.498,5.38,19.77,-91.26
11:22:13.693,5.49,19.9,-92.71
11:22:13.889,5.51,19.82,-94.45
11:22:14.082,5.65,19.57,-96.17
11:22:14.279,5.54,19.76,-97.85
11:22:14.521,5.39,19.68,-99.64
11:22:14.668,5.13,19.87,-101.19
11:22:14.863,5.27,19.96,-102.9
11:22:15.058,5.42,19.82,-104.49
11:22:15.303,5.35,19.45,-106.39
11:22:15.449,5.19,19.23,-108.1
11:22:15.645,5.25,19.23,-109.87
11:22:15.839,5.4,19.36,-111.58
11:22:16.082,5.52,19.26,-113.07
11:22:16.327,5.58,19.13,-114.77
11:22:16.472,5.47,19.2,-116.49
11:22:16.667,5.34,19.19,-118.25
11:22:16.862,5.48,19.35,-119.87
11:22:17.105,5.56,19.43,-121.53
11:22:17.252,5.29,19.07,-123.83
11:22:17.447,6.48,18.91,-125.89
11:22:17.643,7.36,18.19,-130.77
11:22:17.838,9.96,19.86,-140.04
11:22:18.080,12.61,19.12,-139.1
11:22:18.227,13.39,12.84,-142.59
11:22:18.423,12.72,0.76,-148.34
11:22:18.618,14.53,-18.16,-162.89
11:22:18.813,41.54,-7.47,-159.29
11:22:19.008,40.71,-6.47,-138.39
11:22:19.201,42.16,-0.75,-127.23
11:22:19.396,44.96,2.04,-127.08
11:22:19.593,44.18,4.32,-127.84
11:22:19.787,45.41,3.21,-128.68
11:22:19.982,46.26,2.43,-130.95
11:22:20.226,46.72,4.5,-134.52
11:22:20.421,47.98,3.16,-137.42
11:22:20.617,47.26,3.41,-144.82
11:22:20.811,48.01,5.9,-142.97
11:22:21.006,45.79,11.86,-143.27
11:22:21.201,43.58,13.74,-149.1
11:22:21.397,42.69,10.18,-155.24
11:22:21.591,43.87,6.02,-156.19
11:22:21.786,43.32,5.39,-159.21
11:22:21.979,44.85,8.95,-158.09
11:22:22.177,44.31,10.45,-159.86
11:22:22.419,43.38,12.08,-162.87
11:22:22.614,43.63,12.52,-165.86
11:22:22.761,44.53,15.0,-166.41
11:22:22.956,42.58,16.73,-167.65
11:22:23.152,41.58,18.16,-165.32
11:22:23.394,43.01,14.09,-172.0
11:22:23.540,44.49,14.41,-168.7
11:22:23.737,43.89,17.92,-171.79
11:22:23.980,43.36,18.93,-175.55
11:22:24.125,43.15,19.47,-176.24
11:22:24.319,42.24,19.17,-178.89
11:22:24.563,42.06,19.59,179.28
11:22:24.759,41.25,19.86,176.82
11:22:24.954,41.78,19.95,175.05
11:22:25.148,39.17,19.43,171.25
11:22:25.349,38.86,19.05,169.43
11:22:25.540,40.47,20.0,168.36
11:22:25.783,37.7,20.82,165.17
11:22:25.930,38.39,19.05,162.13
11:22:26.124,40.38,21.25,162.27
11:22:26.321,37.65,21.5,158.57
11:22:26.514,37.59,20.36,155.92
11:22:26.709,40.11,20.88,155.27
11:22:26.906,38.45,21.31,151.48
11:22:27.101,38.55,20.3,149.01
11:22:27.296,38.49,19.85,147.08
11:22:27.489,36.98,17.07,143.76
11:22:27.686,42.41,8.08,143.09
11:22:27.880,44.38,6.76,135.84
11:22:28.074,42.34,6.31,129.78
11:22:28.270,41.36,5.05,128.95
11:22:28.465,42.9,7.78,128.53
11:22:28.659,43.93,9.62,127.9
11:22:28.904,43.08,11.44,126.47
11:22:29.147,44.79,14.25,126.36
11:22:29.295,45.21,17.49,124.81
11:22:29.490,42.98,14.52,120.97
11:22:29.682,41.93,9.42,116.68
11:22:29.878,42.84,5.4,114.67
11:22:30.074,42.72,5.36,116.45
11:22:30.269,42.87,7.01,115.0
11:22:30.463,44.55,9.63,112.24
11:22:30.659,43.77,11.29,109.89
11:22:30.854,44.33,10.42,112.11
11:22:31.049,45.23,13.53,110.63
11:22:31.244,44.49,9.31,109.72
11:22:31.439,43.29,8.6,108.48
11:22:31.633,44.78,12.87,116.33
11:22:31.829,44.55,14.59,111.27
11:22:32.022,48.64,19.07,115.16
11:22:32.219,43.7,17.03,102.38
11:22:32.414,44.46,20.68,97.54
11:22:32.657,47.2,25.03,101.1
11:22:32.804,46.19,29.65,99.42
11:22:32.998,45.63,28.79,99.92
11:22:33.242,49.35,34.68,104.07
11:22:33.438,43.81,25.89,95.32
11:22:33.633,49.68,37.77,99.74
11:22:33.828,43.18,34.64,93.54
11:22:34.023,40.64,35.32,91.26
11:22:34.267,38.69,33.57,87.77
11:22:34.411,38.44,32.22,86.01
11:22:34.607,38.31,27.65,80.64
11:22:34.851,42.25,32.77,83.49
11:22:34.998,39.87,36.68,79.64
11:22:35.193,37.33,33.75,74.47
11:22:35.387,36.23,33.44,70.67
11:22:35.632,36.26,31.13,67.68
11:22:35.777,36.11,30.56,66.92
11:22:35.973,37.69,35.9,66.83
11:22:36.166,34.44,36.21,61.47
11:22:36.363,33.98,34.27,58.97
11:22:36.558,37.21,32.09,58.35
11:22:36.753,36.25,30.99,55.85
11:22:36.948,37.13,36.11,55.71
11:22:37.143,34.94,35.9,50.62
11:22:37.338,34.46,34.53,47.82
11:22:37.581,35.66,32.24,45.81
11:22:37.777,36.23,31.88,44.51
11:22:38.020,36.22,36.1,43.23
11:22:38.167,33.84,36.18,38.29
11:22:38.361,33.28,34.9,35.92
11:22:38.556,33.72,32.68,33.02
11:22:38.752,31.47,28.42,29.58
11:22:38.947,31.48,30.27,26.0
11:22:39.142,31.92,31.76,23.06
11:22:39.337,30.53,29.99,19.75
11:22:39.531,30.92,30.35,18.67
11:22:39.727,30.89,28.92,15.99
11:22:39.920,30.4,27.63,13.33
11:22:40.116,30.34,27.83,9.9
11:22:40.312,32.85,28.27,13.03
11:22:40.507,34.35,30.85,10.54
11:22:40.701,33.38,31.12,7.07
11:22:40.895,31.89,30.68,2.31
11:22:41.092,30.24,27.68,-2.19
11:22:41.286,26.1,15.08,-4.01
11:22:41.482,22.5,14.6,-6.34
11:22:41.677,23.78,10.43,-7.95
11:22:41.921,20.01,8.09,-15.47
11:22:42.115,24.95,5.67,-15.95
11:22:42.309,24.74,6.62,-19.94
11:22:42.505,25.89,7.23,-19.69
11:22:42.700,27.95,7.71,-20.27
11:22:42.894,26.78,8.84,-27.98
11:22:43.091,27.61,6.31,-31.73
11:22:43.285,27.71,5.26,-31.95
11:22:43.480,31.29,6.5,-29.16
11:22:43.675,33.36,8.76,-28.23
11:22:43.871,31.82,9.19,-36.16
11:22:44.066,44.4,23.25,-27.85
11:22:44.260,41.97,22.4,-29.54
11:22:44.456,45.1,18.26,-30.34
11:22:44.650,48.8,25.47,-29.07
11:22:44.844,50.91,25.3,-26.41
11:22:45.040,48.41,25.88,-27.88
11:22:45.236,47.42,26.52,-30.09
11:22:45.431,47.03,26.93,-31.91
11:22:45.626,46.76,27.13,-33.64
11:22:45.821,46.36,27.71,-36.01
11:22:46.064,43.64,28.43,-39.65
11:22:46.306,44.13,28.93,-41.85
11:22:46.454,42.9,28.99,-45.24
11:22:46.650,41.63,28.41,-48.21
11:22:46.843,41.4,28.39,-50.3
11:22:47.087,41.75,29.62,-51.17
11:22:47.283,40.85,28.46,-53.78
11:22:47.429,39.73,27.24,-56.49
11:22:47.625,38.9,27.87,-59.68
11:22:47.868,38.1,26.81,-62.46
11:22:48.062,37.83,27.46,-65.13
11:22:48.208,37.89,27.68,-66.95
11:22:48.405,37.42,27.07,-69.27
11:22:48.648,37.14,26.92,-71.87
11:22:48.795,37.03,26.74,-74.18
11:22:48.988,37.28,26.54,-76.4
11:22:49.183,37.23,26.21,-78.55
11:22:49.427,37.19,26.09,-80.74
11:22:49.574,37.04,25.91,-83.17
11:22:49.768,36.76,25.68,-85.68
11:22:49.963,36.51,25.64,-88.23
11:22:50.206,36.65,25.48,-90.47
11:22:50.403,36.24,24.94,-93.02
11:22:50.598,36.2,25.13,-95.55
11:22:50.793,36.21,25.32,-97.96
11:22:50.988,36.4,25.44,-99.97
11:22:51.183,36.44,25.32,-102.25
11:22:51.378,36.17,25.2,-105.02
11:22:51.622,36.07,24.84,-107.31
11:22:51.768,35.46,24.61,-109.74
11:22:51.962,35.44,24.25,-112.25
11:22:52.159,35.48,24.13,-114.38
11:22:52.352,35.62,23.95,-116.58
11:22:52.549,35.69,23.9,-118.78
11:22:52.744,35.92,23.8,-120.88
11:22:52.938,36.11,23.71,-122.93
11:22:53.132,36.37,23.65,-124.83
11:22:53.328,36.31,23.6,-127.0
11:22:53.524,36.6,23.67,-128.98
11:22:53.719,36.82,23.56,-131.1
11:22:53.912,36.73,23.82,-133.48
11:22:54.109,36.79,24.01,-135.56
11:22:54.303,36.72,23.96,-137.92
11:22:54.498,37.88,24.93,-139.29
11:22:54.694,32.4,22.14,-146.97
11:22:54.937,30.94,20.03,-153.03
11:22:55.133,33.01,22.75,-156.61
11:22:55.327,33.36,23.55,-158.03
11:22:55.520,33.39,24.06,-158.43
11:22:55.717,31.46,24.52,-159.99
11:22:55.912,29.75,17.63,-164.28
11:22:56.106,31.15,19.63,-165.99
11:22:56.302,30.06,19.23,-167.2
11:22:56.496,31.34,19.32,-168.18
11:22:56.693,31.69,19.5,-170.02
11:22:56.887,31.06,23.12,-165.3
11:22:57.130,27.49,10.0,-172.61
11:22:57.276,27.25,4.83,-173.77
11:22:57.472,26.84,2.37,177.73
11:22:57.666,28.85,-2.09,172.91
11:22:57.911,27.81,-2.26,167.5
11:22:58.105,31.46,0.54,160.85
11:22:58.253,33.22,-0.49,160.26
11:22:58.447,31.66,-0.26,158.7
11:22:58.642,33.86,0.09,155.91
11:22:58.837,38.51,2.53,146.81
11:22:59.081,37.24,14.82,120.01
11:22:59.276,30.97,15.99,90.64
11:22:59.470,32.5,17.6,76.83
11:22:59.667,34.04,15.13,84.87
11:22:59.860,32.96,8.02,100.92
11:23:00.055,34.5,-1.34,114.65
11:23:00.249,31.36,-11.79,118.73
11:23:00.447,34.58,-18.62,107.05
11:23:00.640,32.61,-14.48,111.47
11:23:00.836,34.6,-11.5,122.16
11:23:01.030,35.27,-12.84,118.49
11:23:01.225,37.56,-13.54,113.97
11:23:01.418,38.91,-14.54,111.45
11:23:01.615,39.91,-14.6,109.22
11:23:01.810,41.04,-14.74,107.22
11:23:02.007,41.56,-16.26,103.38
11:23:02.249,45.83,-16.93,100.83
11:23:02.396,48.27,-14.83,98.62
11:23:02.590,45.23,-14.66,97.2
11:23:02.785,47.5,-10.88,98.27
11:23:02.980,44.95,-6.07,97.94
11:23:03.175,41.51,-9.98,96.1
11:23:03.370,41.95,-13.24,101.14
11:23:03.661,42.48,-13.87,107.53
11:23:03.806,41.12,-12.4,107.32
11:23:04.001,38.89,-13.95,105.67
11:23:04.196,35.51,-14.15,105.61
11:23:04.392,39.29,-12.91,102.23
11:23:04.637,38.82,-13.88,99.5
11:23:04.783,38.01,-13.54,100.41
11:23:04.976,38.98,-12.06,97.84
11:23:05.270,38.36,-11.16,97.64
11:23:05.465,40.83,-9.56,99.13
11:23:05.612,36.78,-8.54,94.33
11:23:05.806,38.56,-8.21,93.0
11:23:05.954,39.68,-9.61,90.24
11:23:06.148,36.83,-11.79,85.78
11:23:06.391,34.38,-8.2,80.26
11:23:06.585,36.6,7.43,70.09
11:23:06.976,50.51,16.38,94.38
11:23:06.977,48.47,13.29,103.76
11:23:07.268,45.69,13.48,101.18
11:23:07.317,43.69,4.38,90.56
11:23:07.657,44.32,7.14,92.03
11:23:07.952,49.29,7.25,98.41
11:23:07.952,43.72,11.94,99.59
11:23:08.147,44.76,11.52,96.36
11:23:08.391,43.78,13.17,95.56
11:23:08.635,44.09,13.39,94.39
11:23:08.781,44.21,14.15,92.3
11:23:08.975,40.76,16.57,85.79
11:23:09.171,41.59,15.59,85.14
11:23:09.317,44.0,18.46,87.2
11:23:09.609,42.77,21.33,87.43
11:23:09.706,43.11,20.84,85.41
11:23:09.901,41.5,21.73,82.54
11:23:10.096,41.76,21.16,80.18
11:23:10.291,36.34,20.09,74.24
11:23:10.535,36.53,18.21,72.3
11:23:10.681,35.98,18.91,68.94
11:23:10.877,37.95,18.54,67.63
11:23:11.122,40.27,20.45,66.09
11:23:11.266,40.52,19.89,65.05
11:23:11.462,39.31,20.12,62.35
11:23:11.656,40.31,19.53,60.69
11:23:11.851,37.92,21.01,56.5
11:23:12.094,38.35,18.96,53.97
11:23:12.339,37.1,19.96,50.18
11:23:12.485,42.1,20.66,51.93
11:23:12.680,41.53,19.89,50.62
11:23:12.922,40.79,20.45,47.21
11:23:13.070,39.84,18.1,44.17
11:23:13.265,38.81,19.16,42.23
11:23:13.460,37.96,16.88,38.12
11:23:13.655,38.38,19.17,35.15
11:23:13.852,38.71,17.95,33.26
11:23:14.047,37.72,18.68,30.35
11:23:14.241,42.35,18.74,30.9
11:23:14.435,41.38,19.06,27.78
11:23:14.630,41.38,18.37,24.8
11:23:14.825,40.73,18.86,22.3
11:23:15.022,40.18,18.64,19.75
11:23:15.216,38.76,17.16,17.22
11:23:15.411,35.8,14.93,11.62
11:23:15.607,37.24,15.53,11.28
11:23:15.800,35.91,16.21,7.59
11:23:15.995,38.15,16.1,7.06
11:23:16.190,37.35,18.1,4.17
11:23:16.435,37.66,16.35,1.45
11:23:16.629,37.53,16.2,-0.89
11:23:16.824,34.77,13.45,-5.72
11:23:17.020,33.46,21.92,-0.94
11:23:17.215,31.83,13.86,-6.52
11:23:17.409,28.44,16.01,-9.08
11:23:17.606,28.65,12.77,-12.59
11:23:17.799,25.62,11.41,-17.37
11:23:17.994,26.76,10.0,-19.02
11:23:18.190,26.68,8.98,-21.43
11:23:18.385,27.66,8.37,-24.07
11:23:18.579,28.16,8.16,-26.8
11:23:18.774,29.57,8.17,-27.67
11:23:18.969,30.19,7.77,-29.07
11:23:19.163,28.76,9.78,-30.78
11:23:19.358,27.87,11.09,-31.08
11:23:19.554,22.95,10.15,-39.06
11:23:19.748,23.11,6.62,-42.81
11:23:19.943,21.24,3.72,-49.65
11:23:20.138,18.06,-12.05,-56.62
11:23:20.334,20.73,-15.64,-63.39
11:23:20.529,18.48,-9.63,-64.66
11:23:20.772,24.89,-5.03,-58.82
11:23:20.967,30.94,4.32,-51.61
11:23:21.162,30.26,6.95,-53.91
11:23:21.357,33.76,12.67,-48.33
11:23:21.552,33.64,7.14,-50.48
11:23:21.748,34.15,3.76,-51.84
11:23:21.943,33.38,0.2,-56.87
11:23:22.138,33.5,-0.83,-60.36
11:23:22.333,32.18,2.08,-61.26
11:23:22.529,31.47,2.41,-64.39
11:23:22.723,31.87,2.03,-67.26
11:23:22.919,30.51,3.14,-71.37
11:23:23.113,29.12,3.21,-74.39
11:23:23.309,30.12,3.18,-78.09
11:23:23.504,26.26,1.8,-84.84
11:23:23.698,24.56,1.97,-90.54
11:23:23.894,27.3,1.35,-93.24
11:23:24.088,26.49,1.19,-93.68
11:23:24.283,26.29,-5.5,-100.36
11:23:24.479,27.91,-10.74,-102.74
11:23:24.673,27.24,-9.89,-104.26
11:23:24.868,32.98,-17.41,-101.32
11:23:25.112,24.54,-21.72,-108.55
11:23:25.307,27.85,-23.71,-111.7
11:23:25.503,31.37,-25.1,-112.04
11:23:25.698,33.42,-24.4,-110.11
11:23:25.892,35.33,-20.5,-112.79
11:23:26.087,34.71,-19.88,-112.17
11:23:26.283,35.74,-22.46,-114.91
11:23:26.477,35.32,-24.05,-118.32
11:23:26.672,36.09,-30.91,-123.65
11:23:26.865,37.58,-30.15,-125.9
11:23:27.060,34.72,-24.56,-127.08
11:23:27.255,35.34,-18.94,-129.02
11:23:27.450,33.57,-21.39,-132.29
11:23:27.645,34.62,-18.65,-133.54
11:23:27.840,32.63,-16.86,-134.74
11:23:28.035,31.76,-13.19,-131.17
11:23:28.231,31.62,-13.26,-132.31
11:23:28.425,32.38,-9.71,-133.47
11:23:28.621,31.3,-6.12,-135.64
11:23:28.815,30.82,-7.99,-140.64
11:23:29.062,28.3,-9.81,-146.14
11:23:29.255,29.4,-9.96,-149.15
11:23:29.450,29.05,-11.9,-153.77
11:23:29.646,31.44,-8.17,-151.62
11:23:29.840,32.75,-9.53,-155.04
11:23:30.036,24.18,-14.04,-160.24
11:23:30.229,31.48,-11.23,-159.48
11:23:30.424,37.0,-12.06,-159.78
11:23:30.620,32.98,-15.73,-166.36
11:23:30.814,34.64,-22.49,-172.97
11:23:31.009,34.04,-28.92,-179.27
11:23:31.207,36.22,-27.12,-179.65
11:23:31.399,36.52,-27.38,177.03
11:23:31.619,37.5,-27.61,173.81
11:23:31.789,37.04,-27.31,170.37
11:23:31.984,36.19,-26.96,168.26
11:23:32.179,35.73,-26.45,166.55
11:23:32.373,36.96,-26.22,166.19
11:23:32.573,36.97,-26.03,166.18
11:23:32.764,34.32,-22.75,167.43
11:23:32.959,30.21,2.12,177.39
11:23:33.155,33.3,-4.97,173.59
11:23:33.350,21.98,-14.77,160.25
11:23:33.642,1.18,-35.88,155.95
11:23:33.787,20.06,-27.18,146.06
11:23:33.982,21.81,-13.23,151.07
11:23:34.178,17.12,-15.0,154.57
11:23:34.373,23.19,-23.68,150.05
11:23:34.567,24.3,-40.02,140.63
11:23:34.762,18.49,-25.49,142.1
11:23:35.006,20.35,-11.95,146.06
11:23:35.153,13.84,-12.96,145.28
11:23:35.347,17.11,-42.45,134.97
11:23:35.543,6.94,-54.06,119.16
11:23:35.738,-10.17,-65.44,122.47
11:23:35.934,-10.09,-58.78,121.43
11:23:36.128,-15.49,-55.62,125.42
11:23:36.324,-19.51,-57.88,127.47
11:23:36.519,-13.15,-52.46,122.03
11:23:36.714,-9.13,-48.71,117.58
11:23:36.909,-10.76,-48.79,112.45
11:23:37.106,2.62,-16.3,107.37
11:23:37.299,13.94,-5.32,121.33
11:23:37.494,5.04,-10.17,121.08
11:23:37.690,1.17,-29.77,125.78
11:23:37.935,-6.78,-41.6,127.86
11:23:38.177,3.01,-39.87,118.0
11:23:38.322,1.94,-32.91,110.96
11:23:38.520,5.93,-17.12,109.93
11:23:38.762,7.15,-3.64,105.82
11:23:38.908,7.07,-2.41,104.46
11:23:39.152,6.19,-0.04,101.1
11:23:39.298,5.98,2.25,99.27
11:23:39.493,4.23,1.9,96.12
11:23:39.689,10.31,5.16,93.99
11:23:39.883,9.98,0.99,91.56
11:23:40.077,2.22,5.75,87.9
11:23:40.278,0.53,5.85,88.61
11:23:40.468,-1.11,-8.91,85.67
11:23:40.662,-4.42,-19.08,81.46
11:23:40.857,-12.82,-29.76,76.54
11:23:41.054,-46.35,-47.17,89.35
11:23:41.248,-44.87,-50.69,82.25
11:23:41.447,-43.55,-53.66,80.32
11:23:41.638,-28.75,-47.48,66.98
11:23:41.833,-25.11,-44.26,62.08
11:23:42.027,-15.78,-41.35,54.34
11:23:42.275,-4.67,-42.98,51.09
11:23:42.466,5.0,-46.83,44.8
11:23:42.661,16.65,-53.38,32.99
11:23:42.856,23.78,-46.87,28.96
11:23:43.051,25.1,-47.46,24.61
11:23:43.248,39.12,-65.3,7.89
11:23:43.441,51.12,-67.98,-8.16
11:23:43.638,58.97,-69.2,-21.54
11:23:43.881,52.27,-68.9,-21.99
11:23:44.026,50.43,-68.48,-26.04
11:23:44.222,48.25,-67.89,-28.88
11:23:44.417,46.37,-67.45,-32.24
11:23:44.612,42.38,-65.58,-34.33
11:23:44.807,42.97,-65.75,-40.47
11:23:45.001,35.19,-61.54,-38.5
11:23:45.196,32.51,-56.82,-38.42
11:23:45.394,35.58,-65.68,-48.86
11:23:45.588,35.47,-64.5,-51.98
11:23:45.784,33.5,-65.22,-55.81
11:23:45.979,29.68,-64.27,-59.01
11:23:46.173,26.35,-62.44,-60.87
11:23:46.367,20.03,-53.2,-63.35
11:23:46.616,18.63,-32.8,-60.87
11:23:46.808,14.13,-25.5,-58.66
11:23:47.001,12.7,-14.65,-50.84
11:23:47.237,21.63,-14.68,-50.15
11:23:47.390,22.03,-14.87,-50.15
11:23:47.586,22.23,-15.2,-51.14
11:23:47.784,22.22,-8.59,-50.22
11:23:47.975,23.8,-0.11,-42.92
11:23:48.171,25.38,-9.85,-44.07
11:23:48.366,25.32,-8.21,-48.67
11:23:48.561,25.97,-6.31,-49.04
11:23:48.757,27.81,-9.0,-50.94
11:23:48.951,25.47,-9.39,-53.26
11:23:49.147,24.8,-12.26,-57.21
11:23:49.340,24.41,-12.34,-56.69
11:23:49.536,24.66,-13.27,-59.02
11:23:49.731,26.12,-18.79,-64.6
11:23:49.925,31.02,-20.5,-69.23
11:23:50.122,30.55,-17.08,-70.91
11:23:50.320,28.89,-14.83,-70.84
11:23:50.510,33.02,-12.06,-70.85
11:23:50.704,27.06,-12.27,-70.47
11:23:50.949,29.53,-18.31,-76.52
11:23:51.144,32.74,-15.2,-74.37
11:23:51.340,37.66,-17.17,-77.59
11:23:51.538,35.13,-13.16,-81.29
11:23:51.742,33.46,-9.14,-78.5
11:23:51.925,30.4,-10.33,-84.9
11:23:52.119,26.14,-9.86,-90.16
11:23:52.315,26.34,-7.76,-90.53
11:23:52.509,25.53,-6.6,-94.01
11:23:52.704,25.34,-5.17,-95.17
11:23:52.899,23.48,-7.54,-97.46
11:23:53.096,18.64,-2.83,-92.9
11:23:53.289,14.95,-5.17,-90.31
11:23:53.486,15.25,-3.95,-92.52
11:23:53.683,15.41,-4.91,-96.89
11:23:53.876,17.81,-4.68,-100.82
11:23:54.070,14.02,-3.42,-102.64
11:23:54.264,8.18,-5.17,-106.4
11:23:54.459,5.19,-8.71,-109.46
11:23:54.654,5.28,-9.3,-111.56
11:23:54.850,4.15,-6.84,-112.81
11:23:55.044,3.61,-8.54,-114.51
11:23:55.291,4.16,-10.83,-119.0
11:23:55.483,4.95,-12.31,-120.22
11:23:55.678,3.23,-11.59,-122.13
11:23:55.873,3.38,-10.42,-122.51
11:23:56.068,2.25,-9.21,-125.2
11:23:56.263,-0.29,-8.69,-130.12
11:23:56.458,-3.78,-13.13,-135.18
11:23:56.654,-1.52,-15.86,-137.36
11:23:56.847,-3.36,-15.06,-140.61
11:23:57.044,1.93,-13.82,-139.34
11:23:57.239,-1.9,-14.74,-140.29
11:23:57.433,-4.35,-14.52,-135.9
11:23:57.628,6.09,-21.92,-137.43
11:23:57.823,13.31,-12.51,-138.91
11:23:58.023,20.97,-8.45,-137.79
11:23:58.213,22.86,-4.27,-134.79
11:23:58.409,25.31,-3.58,-138.06
11:23:58.604,25.93,-9.98,-142.8
11:23:58.799,25.96,-12.3,-149.56
11:23:58.993,34.71,-15.32,-162.09
11:23:59.229,42.63,-24.0,174.52
11:23:59.383,39.33,-24.88,163.04
11:23:59.627,43.81,-23.48,157.04
11:23:59.823,45.23,-27.6,151.3
11:24:00.017,44.4,-31.06,153.33
11:24:00.212,53.75,-34.32,135.84
11:24:00.407,53.57,-34.42,133.07
11:24:00.602,55.93,-35.98,130.82
11:24:00.797,60.6,-33.32,127.05
11:24:00.992,63.56,-28.57,125.59
11:24:01.189,63.81,-26.31,125.72
11:24:01.423,60.25,-25.55,125.47
11:24:01.578,60.54,-23.06,124.87
11:24:01.773,54.45,-20.98,126.99
11:24:01.967,56.94,-16.05,125.9
11:24:02.161,59.01,-22.72,113.53
11:24:02.358,57.96,-21.59,113.19
11:24:02.551,60.76,-23.58,105.42
11:24:02.747,60.88,-21.38,103.59
11:24:02.945,60.6,-22.33,100.62
11:24:03.137,59.98,-22.8,97.2
11:24:03.332,63.35,-20.84,93.78
11:24:03.527,62.91,-22.63,88.13
11:24:03.770,61.95,-20.68,87.87
11:24:03.965,57.43,-20.61,85.3
11:24:04.161,62.21,-19.86,86.26
11:24:04.358,57.25,-19.15,86.11
11:24:04.551,58.2,-18.94,81.39
11:24:04.747,60.19,-20.48,79.33
11:24:04.940,58.64,-20.61,77.66
11:24:05.138,60.34,-18.82,73.28
11:24:05.331,60.62,-17.59,73.34
11:24:05.525,57.71,-16.73,74.35
11:24:05.721,59.22,-16.06,76.85
11:24:05.915,61.59,-20.9,65.95
11:24:06.112,59.32,-19.07,61.98
11:24:06.306,55.48,-24.2,48.67
11:24:06.549,60.92,-37.42,22.74
11:24:06.697,60.48,-40.83,17.19
11:24:06.894,57.79,-38.01,14.72
11:24:07.086,63.81,-39.64,0.79
11:24:07.280,68.96,-35.23,-0.17
11:24:07.476,69.71,-39.91,-7.26
11:24:07.671,65.22,-35.95,-4.39
11:24:07.869,71.45,-39.01,-11.22
11:24:08.109,68.38,-38.9,-16.78
11:24:08.304,65.86,-34.55,-18.95
11:24:08.499,69.29,-36.39,-22.59
11:24:08.694,65.14,-36.15,-15.77
11:24:08.889,61.4,-54.11,-25.57
11:24:09.133,41.94,-67.57,-15.57
11:24:09.279,70.03,-73.25,-28.75
11:24:09.474,96.2,-76.66,-42.75
11:24:09.670,119.24,-75.1,-53.38
11:24:09.865,148.07,-70.13,-71.36
11:24:10.060,160.16,-63.21,-72.76
11:24:10.254,169.79,-59.68,-76.8
11:24:10.449,172.84,-55.67,-71.95
11:24:10.644,-178.91,-51.22,-73.99
11:24:10.839,-177.34,-50.47,-69.15
11:24:11.034,-173.1,-45.38,-65.39
11:24:11.232,-172.62,-47.07,-61.7
11:24:11.429,-168.57,-43.61,-56.27
11:24:11.622,-165.62,-44.56,-55.03
11:24:11.813,-165.42,-43.67,-48.52
11:24:12.010,-166.13,-42.68,-43.86
11:24:12.208,-162.22,-43.35,-44.01
11:24:12.448,-156.73,-44.14,-40.84
11:24:12.643,-155.52,-45.02,-39.85
11:24:12.843,-151.85,-45.51,-38.06
11:24:13.034,-143.72,-42.96,-43.3
11:24:13.229,-144.94,-44.6,-37.96
11:24:13.423,-141.26,-50.64,-34.73
11:24:13.619,-133.18,-54.39,-34.73
11:24:13.812,-117.35,-56.61,-41.69
11:24:14.007,-101.3,-59.18,-45.95
11:24:14.202,-77.6,-58.84,-60.37
11:24:14.400,-48.39,-52.11,-80.33
11:24:14.592,-40.45,-52.29,-86.95
11:24:14.788,-40.37,-51.42,-81.74
11:24:14.984,-34.45,-55.12,-86.84
11:24:15.177,-31.37,-59.06,-82.06
11:24:15.374,-28.05,-55.41,-90.75
11:24:15.569,-17.16,-55.35,-93.65
11:24:15.763,-22.7,-56.84,-91.51
11:24:15.958,-17.22,-53.08,-93.01
11:24:16.153,-17.11,-54.68,-98.91
11:24:16.348,-11.92,-51.77,-100.41
11:24:16.543,-17.72,-56.26,-102.79
11:24:16.787,-18.75,-54.76,-102.68
11:24:16.981,-16.49,-56.44,-104.78
11:24:17.177,-18.8,-57.59,-106.51
11:24:17.373,-19.17,-65.03,-97.55
11:24:17.567,-16.43,-63.5,-104.24
11:24:17.761,-4.41,-63.07,-108.6
11:24:17.958,30.04,-50.88,-133.78
11:24:18.151,47.82,-29.21,-142.96
11:24:18.396,57.64,-44.96,-148.83
11:24:18.545,32.76,-40.27,-107.29
11:24:18.742,19.29,-42.08,-94.79
11:24:18.981,17.36,-36.4,-93.85
11:24:19.128,22.4,-38.96,-95.53
11:24:19.322,20.11,-37.71,-91.74
11:24:19.516,23.89,-34.38,-91.96
11:24:19.764,32.75,-33.33,-92.34
11:24:19.956,35.94,-30.32,-92.5
11:24:20.102,36.64,-17.62,-91.02
11:24:20.297,38.01,-14.51,-95.41
11:24:20.493,37.37,-9.64,-94.0
11:24:20.688,36.35,-4.65,-97.58
11:24:20.882,36.36,-3.01,-98.31
11:24:21.127,37.11,0.79,-94.93
11:24:21.321,35.61,-6.01,-103.09
11:24:21.566,36.75,3.2,-99.71
11:24:21.714,37.14,-0.93,-103.0
11:24:21.911,35.85,-0.07,-107.09
11:24:22.100,36.8,-1.01,-109.22
11:24:22.344,37.6,0.33,-110.7
11:24:22.539,37.49,0.75,-113.22
11:24:22.686,37.84,2.26,-113.47
11:24:22.883,39.14,3.83,-114.15
11:24:23.076,39.67,3.33,-117.95
11:24:23.274,39.37,4.11,-119.93
11:24:23.467,38.62,4.67,-122.16
11:24:23.716,40.25,5.66,-121.93
11:24:23.857,40.35,6.74,-124.03
11:24:24.052,39.7,6.23,-125.81
11:24:24.248,39.8,6.74,-126.94
11:24:24.441,39.68,7.62,-128.89
11:24:24.636,39.93,8.12,-130.6
11:24:24.831,39.87,8.04,-132.51
11:24:25.077,40.1,8.57,-134.2
11:24:25.368,39.93,8.58,-136.23
11:24:25.471,39.6,9.23,-138.02
11:24:25.698,39.86,9.76,-139.68
11:24:25.855,40.01,9.97,-141.49
11:24:26.198,39.73,9.97,-143.5
11:24:26.246,39.42,10.24,-145.69
11:24:26.489,39.09,10.44,-147.74
11:24:26.691,39.11,10.63,-149.81
11:24:26.831,38.9,10.38,-152.16
11:24:27.075,38.85,10.4,-154.09
11:24:27.221,38.72,10.6,-156.15
11:24:27.416,38.6,10.83,-158.12
11:24:27.660,38.48,11.08,-160.12
11:24:27.853,38.42,11.21,-162.16
11:24:28.001,38.35,11.58,-164.1
11:24:28.294,38.03,11.53,-166.28
11:24:28.438,38.03,11.4,-168.25
11:24:28.635,38.09,11.51,-170.23
11:24:28.783,37.94,11.58,-172.32
11:24:28.975,37.86,11.71,-174.19
11:24:29.170,38.37,11.94,-176.07
11:24:29.365,38.44,11.97,-178.07
11:24:29.609,38.47,12.33,-179.92
11:24:29.804,38.32,12.26,177.95
11:24:29.999,38.3,12.59,176.04
11:24:30.200,38.16,11.19,173.43
11:24:30.441,40.36,18.11,-179.52
11:24:30.584,37.32,16.73,177.24
11:24:30.779,38.11,21.64,175.96
11:24:31.022,35.28,18.38,170.35
11:24:31.168,36.55,20.78,169.93
11:24:31.365,36.07,22.35,169.16
11:24:31.560,36.5,22.1,166.75
11:24:31.759,37.94,23.74,165.03
11:24:31.949,38.2,25.1,162.93
11:24:32.143,37.51,25.85,161.09
11:24:32.338,35.33,23.82,157.18
11:24:32.539,35.11,23.22,154.7
11:24:32.728,34.92,23.42,152.96
11:24:32.923,35.3,23.3,150.66
11:24:33.167,35.13,23.61,148.48
11:24:33.313,34.92,23.4,146.18
11:24:33.512,36.68,24.19,145.51
11:24:33.754,37.16,26.33,144.79
11:24:33.899,35.6,25.38,141.56
11:24:34.191,34.76,26.73,139.93
11:24:34.338,35.65,27.24,138.95
11:24:34.533,36.16,26.16,138.28
11:24:34.767,36.57,27.05,138.86
11:24:34.923,34.4,27.44,134.52
11:24:35.117,33.21,27.15,129.62
11:24:35.313,32.51,26.81,126.15
11:24:35.557,31.74,26.26,123.7
11:24:35.702,31.41,26.12,121.73
11:24:35.898,32.33,26.24,119.78
11:24:36.193,32.54,25.77,117.47
11:24:36.336,32.07,25.37,114.95
11:24:36.483,31.85,25.19,112.75
11:24:36.679,32.65,24.85,110.68
11:24:36.874,32.95,24.59,108.34
11:24:37.068,33.09,24.57,106.73
11:24:37.311,33.55,24.71,105.12
11:24:37.458,33.54,24.37,102.84
11:24:37.652,32.8,24.07,100.35
11:24:37.848,32.4,23.73,97.86
11:24:38.044,32.34,23.66,95.66
11:24:38.242,32.34,23.68,93.59
11:24:38.482,32.34,23.5,91.48
11:24:38.678,32.59,23.8,89.82
11:24:38.872,32.24,23.89,87.54
11:24:39.066,32.08,23.93,85.19
11:24:39.262,32.09,23.72,83.01
11:24:39.496,31.83,23.51,80.82
11:24:39.701,31.6,23.48,78.48
11:24:39.847,31.54,22.92,76.1
11:24:40.090,31.19,22.4,74.07
11:24:40.237,30.36,18.57,70.98
11:24:40.480,32.15,23.19,71.5
11:24:40.626,40.67,27.19,81.65
11:24:40.825,45.21,27.42,82.0
11:24:41.019,41.46,20.93,68.96
11:24:41.213,33.21,16.12,51.76
11:24:41.406,37.38,5.3,23.01
11:24:41.601,31.68,2.23,15.21
11:24:41.797,23.73,-0.78,12.01
11:24:41.993,15.87,-2.36,14.22
11:24:42.186,17.64,-9.85,14.69
11:24:42.381,19.19,-11.3,14.1
11:24:42.625,17.15,-12.51,18.35
11:24:42.825,20.12,-13.19,21.69
11:24:43.015,20.64,-13.02,16.99
11:24:43.210,22.91,-12.26,13.89
11:24:43.404,22.48,-18.01,9.7
11:24:43.602,24.91,-18.87,1.92
11:24:43.795,27.95,-18.23,-1.19
11:24:43.990,31.5,-21.34,-2.65
11:24:44.187,31.75,-18.48,-4.04
11:24:44.381,7.99,-25.37,-0.12
11:24:44.580,20.21,-28.97,-27.71
11:24:44.769,26.59,-19.0,-41.33
11:24:44.968,22.86,-8.65,-42.14
11:24:45.160,16.48,8.79,-47.09
11:24:45.354,21.79,-3.53,-82.82
11:24:45.551,58.6,-15.88,-111.36
11:24:45.745,84.56,5.96,-127.68
11:24:45.940,91.39,27.83,-139.39
11:24:46.137,85.08,38.98,-153.66
11:24:46.330,92.96,42.05,-147.87
11:24:46.525,94.3,54.92,-148.88
11:24:46.722,107.35,47.01,-125.56
11:24:46.964,103.0,31.86,-151.69
11:24:47.161,90.86,39.84,177.37
11:24:47.355,42.4,37.6,146.07
11:24:47.549,10.15,15.12,132.15
11:24:47.745,-3.14,2.95,128.68
11:24:47.941,-3.18,-7.4,116.54
11:24:48.134,6.46,-20.31,94.42
11:24:48.329,27.33,-24.62,62.34
11:24:48.564,52.36,-19.07,36.6
11:24:48.820,61.99,-21.24,29.37
11:24:48.919,54.28,-24.94,41.25
11:24:49.110,51.62,-28.93,49.53
11:24:49.305,52.11,-34.03,61.1
11:24:49.499,56.01,-38.19,67.74
11:24:49.694,61.42,-36.88,66.26
11:24:49.938,66.83,-31.9,59.36
11:24:50.084,73.91,-22.83,54.79
11:24:50.280,79.12,-18.13,62.1
11:24:50.515,80.41,-25.69,65.85
11:24:50.669,84.16,-25.82,80.83
11:24:50.864,84.21,-40.83,83.96
11:24:51.060,89.9,-37.05,84.45
11:24:51.303,92.55,-24.56,80.79
11:24:51.498,92.19,-17.02,74.58
11:24:51.693,89.15,-17.87,66.29
11:24:51.889,88.02,-23.11,52.41
11:24:52.086,90.18,-12.89,46.11
11:24:52.277,89.98,-7.31,39.29
11:24:52.473,88.7,-7.29,32.87
11:24:52.668,87.74,-7.22,27.12
11:24:52.863,87.43,-5.47,21.91
11:24:53.059,86.98,-4.23,17.47
11:24:53.254,86.71,-4.21,13.51
11:24:53.447,87.0,-3.61,8.46
11:24:53.692,88.61,-4.21,2.87
11:24:53.837,89.12,0.72,-2.09
11:24:54.033,90.36,3.08,-4.24
11:24:54.229,90.6,1.15,-7.71
11:24:54.423,91.07,0.98,-11.54
11:24:54.618,91.3,5.74,-15.37
11:24:54.817,91.23,10.07,-19.42
11:24:55.008,93.23,12.32,-18.13
11:24:55.204,94.55,4.45,-15.24
11:24:55.398,96.66,-2.22,-10.43
11:24:55.642,98.53,-2.75,-11.34
11:24:55.838,97.09,8.05,-17.68
11:24:56.038,92.92,15.52,-25.73
11:24:56.239,89.76,18.26,-33.96
11:24:56.422,86.93,12.02,-39.9
11:24:56.618,89.73,10.32,-38.52
11:24:56.812,85.59,8.5,-45.75
11:24:57.009,83.41,15.87,-56.3
11:24:57.205,78.35,22.27,-69.32
11:24:57.396,73.94,22.54,-81.41
11:24:57.592,72.37,19.28,-88.14
11:24:57.788,73.45,16.84,-91.97
11:24:57.982,75.64,16.27,-95.14
11:24:58.177,80.74,18.63,-95.46
11:24:58.373,81.52,19.52,-99.09
11:24:58.566,86.12,23.46,-98.51
11:24:58.763,88.75,20.07,-96.32
11:24:59.008,95.91,16.32,-89.82
11:24:59.152,98.9,9.39,-84.94
11:24:59.349,102.91,5.43,-83.42
11:24:59.542,102.41,12.67,-83.88
11:24:59.737,103.52,14.46,-82.98
11:24:59.981,98.29,7.74,-90.73
11:25:00.175,103.01,12.09,-87.72
11:25:00.371,110.47,11.45,-78.45
11:25:00.566,113.89,5.46,-74.93
11:25:00.762,114.75,0.99,-75.48
11:25:00.957,110.84,5.34,-81.53
11:25:01.152,107.91,10.84,-87.71
11:25:01.346,105.9,18.65,-90.71
11:25:01.541,100.26,20.57,-99.0
11:25:01.736,97.47,20.12,-105.51
11:25:01.931,95.06,21.57,-110.94
11:25:02.126,91.27,23.62,-117.59
11:25:02.321,87.41,25.69,-125.61
11:25:02.515,77.67,22.6,-140.36
11:25:02.711,69.38,21.39,-156.12
11:25:02.905,64.3,22.95,-169.92
11:25:03.102,60.12,19.26,176.87
11:25:03.299,59.02,15.82,167.17
11:25:03.539,59.99,14.55,160.73
11:25:03.734,61.36,12.25,155.74
11:25:03.882,65.14,11.72,153.44
11:25:04.076,72.09,8.06,173.55
11:25:04.320,72.69,2.88,-172.24
11:25:04.514,72.07,0.47,-171.86
11:25:04.709,73.23,-6.73,-145.73
11:25:04.905,63.88,-12.25,-125.48
11:25:05.100,50.16,-16.69,-113.87
11:25:05.296,36.9,-21.32,-109.5
11:25:05.490,32.6,-23.48,-117.72
11:25:05.687,37.84,-33.7,-132.8
11:25:05.881,44.75,-12.54,-159.17
11:25:06.172,31.45,-16.54,-160.99
11:25:06.269,51.42,-3.06,175.1
11:25:06.467,73.2,11.24,167.84
11:25:06.659,67.8,17.46,159.49
11:25:06.855,50.68,12.81,145.03
11:25:07.050,52.74,-0.15,142.39
11:25:07.244,62.82,3.62,133.55
11:25:07.440,69.13,12.59,122.41
11:25:07.685,68.77,5.49,121.93
11:25:07.831,63.04,1.95,122.78
11:25:08.025,49.87,-9.32,119.88
11:25:08.220,38.71,-15.72,120.39
11:25:08.415,40.13,-19.8,121.65
11:25:08.658,47.78,-28.98,131.51
11:25:08.854,52.7,-39.64,144.9
11:25:09.049,50.58,-42.27,169.57
11:25:09.244,50.31,-50.23,-178.72
11:25:09.443,53.51,-52.88,-178.91
11:25:09.635,59.74,-49.96,172.82
11:25:09.829,65.34,-43.38,156.39
11:25:10.023,65.5,-36.83,142.53
11:25:10.267,68.44,-33.06,115.8
11:25:10.461,46.69,-44.88,112.39
11:25:10.609,26.96,-51.25,124.0
11:25:10.806,21.27,-57.28,131.74
11:25:10.997,46.31,-57.71,119.77
11:25:11.193,70.01,-39.01,110.63
11:25:11.387,76.27,-39.39,108.38
11:25:11.582,61.15,-49.47,114.02
11:25:11.777,44.55,-57.3,116.66
11:25:11.977,32.81,-58.06,115.9
11:25:12.171,33.23,-60.24,107.0
11:25:12.367,58.49,-58.34,90.24
11:25:12.557,78.36,-48.4,75.54
11:25:12.753,88.21,-47.36,74.11
11:25:12.996,75.29,-54.94,79.21
11:25:13.191,53.04,-62.9,94.08
11:25:13.435,37.94,-62.82,96.58
11:25:13.599,33.96,-59.49,90.18
11:25:13.776,47.62,-61.45,82.22
11:25:14.020,113.34,-52.4,24.41
11:25:14.167,119.13,-58.46,16.76
11:25:14.370,111.65,-59.4,11.84
11:25:14.558,90.0,-60.35,13.17
11:25:14.754,76.86,-64.4,8.64
11:25:14.947,74.38,-62.97,2.09
11:25:15.143,86.84,-60.95,-11.81
11:25:15.336,102.98,-51.18,-27.07
11:25:15.534,102.18,-49.84,-32.21
11:25:15.726,94.7,-51.17,-34.95
11:25:15.926,94.0,-60.77,-49.25
11:25:16.124,80.04,-65.5,-50.32
11:25:16.314,67.79,-63.19,-46.31
11:25:16.506,76.18,-55.3,-56.96
11:25:16.706,93.64,-38.27,-67.96
11:25:16.896,106.73,-37.84,-76.73
11:25:17.140,99.86,-37.75,-78.49
11:25:17.340,89.18,-39.44,-85.85
11:25:17.581,73.31,-41.69,-90.39
11:25:17.871,60.38,-52.61,-88.01
11:25:17.924,69.38,-50.64,-98.05
11:25:18.165,88.01,-42.75,-111.99
11:25:18.312,82.14,-43.09,-110.29
11:25:18.506,70.05,-44.49,-105.96
11:25:18.707,50.61,-49.63,-102.69
11:25:18.945,47.57,-50.97,-106.75
11:25:19.140,55.02,-46.74,-115.73
11:25:19.289,65.6,-45.94,-123.31
11:25:19.482,65.02,-43.13,-124.35
11:25:19.726,63.67,-41.74,-128.8
11:25:19.871,57.84,-39.28,-132.93
11:25:20.069,50.41,-35.88,-138.9
11:25:20.260,42.62,-34.58,-147.97
11:25:20.457,36.4,-27.22,-162.78
11:25:20.650,31.89,-27.19,-170.63
11:25:20.946,27.72,-24.84,179.35
11:25:21.040,28.17,-23.85,169.02
11:25:21.284,42.22,-16.06,140.45
11:25:21.528,42.83,2.83,117.26
11:25:21.674,40.33,7.56,108.84
11:25:21.870,44.08,8.86,96.45
11:25:22.064,47.14,-5.9,93.6
11:25:22.260,60.29,-10.64,101.3
11:25:22.459,72.04,2.12,115.76
11:25:22.656,68.25,6.55,130.98
11:25:22.845,67.14,-2.59,136.62
11:25:23.039,73.05,-7.73,143.62
11:25:23.234,80.01,-5.5,142.22
11:25:23.429,83.62,-2.42,134.63
11:25:23.626,85.22,2.35,122.71
11:25:23.822,84.74,11.45,110.84
11:25:24.015,76.77,9.79,98.05
11:25:24.209,70.29,3.29,87.92
11:25:24.405,69.07,4.01,81.58
11:25:24.600,66.48,-6.01,74.13
11:25:24.794,67.79,-14.57,71.07
11:25:24.991,69.74,-19.47,60.6
11:25:25.186,65.79,-16.81,51.1
11:25:25.383,66.14,-14.0,40.22
11:25:25.574,68.34,-12.61,33.22
11:25:25.818,72.17,-9.55,22.83
11:25:26.013,72.24,-9.01,13.61
11:25:26.208,66.11,-10.04,15.04
11:25:26.500,55.56,-23.09,20.63
11:25:26.598,44.64,-49.76,25.01
11:25:26.842,26.58,-59.63,50.59
11:25:26.988,-2.88,-51.95,76.63
11:25:27.183,-29.36,-46.59,92.39
11:25:27.379,-5.88,-61.11,81.4
11:25:27.622,-43.5,-55.78,107.94
11:25:27.817,-55.93,-39.07,120.09
11:25:28.005,-40.29,-40.5,112.43
11:25:28.158,-38.5,-41.0,118.37
11:25:28.404,-75.21,-47.21,167.4
11:25:28.550,-66.07,-46.47,157.94
11:25:28.743,-63.35,-31.87,152.59
11:25:28.940,-44.65,-29.94,137.77
11:25:29.137,-41.69,-30.98,134.54
11:25:29.328,-37.31,-29.43,130.35
11:25:29.523,-34.84,-28.98,127.5
11:25:29.768,-34.58,-27.63,127.15
11:25:29.914,-32.6,-26.56,127.41
11:25:30.161,-32.69,-17.62,122.88
11:25:30.352,-38.34,-6.13,117.71
11:25:30.548,-42.95,-3.38,116.71
11:25:30.742,-43.36,-1.91,117.25
11:25:30.943,-44.83,-1.18,114.6
11:25:31.132,-41.44,-4.94,114.65
11:25:31.328,-37.34,-7.47,111.74
11:25:31.522,-30.85,-12.87,109.46
11:25:31.718,-26.08,-17.92,108.3
11:25:31.912,-23.6,-18.09,107.95
11:25:32.112,-21.98,-15.58,103.96
11:25:32.352,-20.29,-13.14,100.32
11:25:32.498,-15.04,-7.79,98.54
11:25:32.692,-13.13,-7.37,98.12
11:25:32.887,20.63,-13.72,108.07
11:25:33.082,17.06,-27.24,103.36
11:25:33.279,18.54,-27.53,107.05
11:25:33.475,15.36,-16.85,107.89
11:25:33.668,-11.92,-0.89,98.69
11:25:33.862,-21.2,1.69,97.28
11:25:34.057,-17.09,1.03,93.59
11:25:34.252,-16.74,3.98,95.64
11:25:34.496,-22.62,11.51,90.89
11:25:34.691,-13.15,9.57,89.79
11:25:34.983,-9.14,9.12,86.37
11:25:35.130,-6.35,12.39,86.99
11:25:35.279,-6.44,13.37,87.64
11:25:35.523,-5.34,13.36,85.95
11:25:35.666,-4.27,13.95,82.96
11:25:35.862,-5.89,14.54,82.05
11:25:36.058,-7.37,15.07,79.21
11:25:36.251,-7.25,14.22,78.34
11:25:36.446,-7.72,14.11,75.82
11:25:36.641,-7.95,13.64,73.79
11:25:36.836,-8.51,13.7,71.99
11:25:37.031,-8.28,13.1,70.41
11:25:37.226,-8.1,12.96,68.49
11:25:37.423,-8.83,13.11,67.17
11:25:37.620,-8.9,12.28,66.02
11:25:37.811,-7.31,12.13,65.28
11:25:38.008,-9.56,12.13,61.7
11:25:38.201,-8.71,11.04,60.69
11:25:38.398,-14.86,8.98,51.4
11:25:38.591,-11.85,8.98,45.11
11:25:38.837,-16.9,7.99,36.29
11:25:39.030,-15.6,10.73,23.55
11:25:39.225,-18.57,12.6,15.91
11:25:39.437,-20.69,14.0,5.18
11:25:39.615,-19.21,11.89,-2.1
11:25:39.813,-25.26,8.36,-10.35
11:25:40.005,-25.78,7.91,-19.26
11:25:40.199,-30.2,5.81,-22.42
11:25:40.395,-31.63,3.07,-26.02
11:25:40.590,-33.43,4.11,-29.65
11:25:40.785,-32.85,4.46,-30.3
11:25:40.982,-37.02,6.97,-27.66
11:25:41.175,-39.9,20.32,-18.53
11:25:41.370,-37.24,1.99,9.2
11:25:41.565,-35.85,-2.65,7.73
11:25:41.762,-34.49,-18.42,-8.19
11:25:41.955,-46.28,3.9,-19.45
11:25:42.151,-42.13,9.28,-8.63
11:25:42.346,-28.04,8.5,-7.24
11:25:42.541,-15.99,2.66,-8.41
11:25:42.737,-15.11,-19.03,-9.94
11:25:42.931,-12.36,-19.4,-31.79
11:25:43.176,-5.27,-20.76,-54.74
11:25:43.368,-7.52,-25.76,-62.69
11:25:43.564,-9.41,-20.75,-57.67
11:25:43.759,-7.71,-18.94,-50.61
11:25:43.955,1.17,-33.04,-63.91
11:25:44.148,0.68,-39.65,-65.38
11:25:44.344,6.04,-44.56,-75.92
11:25:44.539,8.57,-42.0,-80.47
11:25:44.734,10.34,-35.86,-78.55
11:25:44.928,27.13,-22.65,-84.79
11:25:45.124,34.28,-28.06,-91.85
11:25:45.319,31.56,-46.97,-108.96
11:25:45.513,34.22,-65.84,-126.33
11:25:45.709,30.32,-68.07,-128.47
11:25:45.904,15.27,-66.92,-129.82
11:25:46.101,3.13,-59.88,-120.51
11:25:46.293,-0.84,-63.89,-117.23
11:25:46.488,10.44,-33.14,-134.72
11:25:46.683,17.7,-33.95,-142.03
11:25:46.879,17.22,-29.36,-144.02
11:25:47.074,19.31,-33.11,-148.06
11:25:47.318,14.74,-48.86,-141.3
11:25:47.561,-0.3,-55.35,-130.61
11:25:47.709,-17.46,-56.26,-123.29
11:25:47.905,-21.75,-49.46,-122.65
11:25:48.097,-33.66,-56.41,-121.58
11:25:48.293,-16.71,-57.08,-136.03
11:25:48.487,-21.84,-51.83,-134.72
11:25:48.682,-27.0,-48.35,-128.67
11:25:48.878,-30.82,-29.23,-125.69
11:25:49.077,-20.42,-27.1,-132.28
11:25:49.267,-17.67,-23.87,-134.41
11:25:49.462,-14.62,-21.3,-136.11
11:25:49.657,-16.15,-24.27,-136.66
11:25:49.854,-20.0,-22.61,-132.66
11:25:50.048,-21.34,-19.15,-132.1
11:25:50.292,-21.28,-27.49,-134.42
11:25:50.438,-17.11,-27.18,-146.61
11:25:50.633,-18.85,-30.82,-148.41
11:25:50.827,-19.46,-31.56,-152.15
11:25:51.022,-20.6,-34.22,-155.51
11:25:51.217,-27.09,-36.56,-157.16
11:25:51.413,-34.98,-36.91,-154.76
11:25:51.608,-34.92,-30.5,-158.2
11:25:51.851,-35.95,-31.23,-162.67
11:25:52.047,-48.06,-33.49,-164.61
11:25:52.244,-32.17,-30.65,-169.19
11:25:52.440,-25.18,-27.12,-175.0
11:25:52.631,-30.24,-30.97,-176.47
11:25:52.827,132.51,43.18,-126.96
11:25:53.021,-18.84,-19.54,-141.3
11:25:53.263,1.82,5.37,-151.32
11:25:53.412,11.96,31.89,-156.95
11:25:53.606,13.08,29.29,-163.03
11:25:53.802,20.53,32.05,-168.54
11:25:53.996,14.47,25.73,-178.5
11:25:54.192,8.54,28.8,173.18
11:25:54.387,0.54,25.76,165.62
11:25:54.583,-8.31,38.18,160.61
11:25:54.780,-9.78,32.61,155.81
11:25:54.972,-11.84,23.81,154.15
11:25:55.166,-12.48,14.52,153.56
11:25:55.364,-13.95,8.41,152.96
11:25:55.557,-15.57,2.28,151.96
11:25:55.752,-16.9,-0.6,149.82
11:25:55.995,-17.51,-2.52,148.43
11:25:56.190,-18.23,-5.21,147.38
11:25:56.389,-23.85,-15.5,156.05
11:25:56.582,-39.1,-8.26,176.59
11:25:56.777,-72.94,-3.99,-173.21
11:25:56.971,122.65,24.07,-144.58
11:25:57.165,-92.29,-45.93,-119.64
11:25:57.360,-23.8,-70.31,-179.0
11:25:57.559,3.61,-65.52,139.6
11:25:57.750,0.28,-59.36,133.43
11:25:57.945,1.98,-57.42,127.33
11:25:58.141,-5.51,-67.13,130.84
11:25:58.337,-21.88,-71.27,153.49
11:25:58.530,-38.95,-62.78,177.04
11:25:58.767,-67.57,-67.77,-145.08
11:25:58.927,-90.56,-73.25,-120.13
11:25:59.262,-100.31,-77.67,-109.75
11:25:59.310,-115.35,-80.74,-96.72
11:25:59.506,-167.09,-86.17,-44.22
11:25:59.700,-38.21,-66.84,-165.53
11:25:59.897,20.81,-54.81,157.92
11:26:00.092,111.47,-62.55,76.9
11:26:00.334,93.11,-52.81,123.98
11:26:00.570,120.93,-31.17,69.56
11:26:00.726,101.11,-44.6,76.03
11:26:00.923,86.35,-43.14,77.18
11:26:01.113,67.19,-37.67,84.75
11:26:01.312,57.12,-33.8,79.33
11:26:01.552,46.92,-27.91,77.28
11:26:01.700,36.77,-22.5,75.96
11:26:01.895,27.0,-20.58,75.64
11:26:02.088,12.41,-22.33,88.45
11:26:02.284,14.27,4.73,95.51
11:26:02.479,-2.79,-5.31,87.35
11:26:02.674,-5.45,-8.2,78.69
11:26:02.869,-6.75,-7.0,71.74
11:26:03.066,-12.83,-5.19,67.62
11:26:03.287,-21.65,-15.24,62.9
11:26:03.455,-28.49,-15.24,60.74
11:26:03.649,-33.19,-20.12,64.52
11:26:03.845,-38.67,-19.25,67.14
11:26:04.040,-77.97,-4.67,74.92
11:26:04.234,-87.39,-5.66,121.81
11:26:04.429,-103.47,-24.8,137.81
11:26:04.673,-101.28,-35.19,152.43
11:26:04.917,-105.44,-48.82,163.77
11:26:05.064,-109.06,-66.23,172.73
11:26:05.258,-63.56,-75.32,137.08
11:26:05.471,-54.04,-82.73,122.24
11:26:05.648,-18.86,-79.61,84.88
11:26:05.844,-2.65,-79.94,65.19
11:26:06.042,1.95,-71.89,57.75
11:26:06.233,3.74,-69.31,53.67
11:26:06.428,5.41,-61.11,49.76
11:26:06.644,9.95,-60.09,41.15
11:26:06.818,8.18,-52.84,39.73
11:26:07.013,6.61,-54.33,33.98
11:26:07.210,2.95,-52.32,31.6
11:26:07.452,6.02,-51.44,25.91
11:26:07.599,6.22,-49.97,22.55
11:26:07.792,4.1,-49.5,23.55
11:26:07.988,-21.38,-5.16,39.56
11:26:08.183,-19.25,9.04,52.96
11:26:08.379,-9.97,10.57,38.18
11:26:08.574,-11.95,21.86,37.57
11:26:08.767,-9.04,16.39,33.8
11:26:09.012,-15.25,17.51,32.3
11:26:09.208,-10.92,17.39,34.0
11:26:09.404,-6.13,16.03,35.19
11:26:09.596,-9.49,10.92,33.76
11:26:09.794,-17.27,5.14,34.83
11:26:09.987,-19.16,4.46,33.91
11:26:10.182,-12.89,-1.67,36.85
11:26:10.379,-0.8,-3.96,35.28
11:26:10.572,6.21,-7.07,36.95
11:26:10.768,5.53,-15.93,39.89
11:26:10.962,5.59,-22.33,40.08
11:26:11.157,13.13,-11.87,36.58
11:26:11.352,15.62,-13.16,35.08
11:26:11.548,11.79,-15.36,30.87
11:26:11.742,14.72,-14.5,25.6
11:26:11.938,11.77,-13.69,20.42
11:26:12.132,8.22,-13.97,14.65
11:26:12.327,9.63,-13.1,10.18
11:26:12.522,8.5,-12.42,8.45
11:26:12.717,5.24,-15.44,8.46
11:26:12.912,3.33,-15.09,8.19
11:26:13.108,2.66,-14.24,7.81
11:26:13.356,-2.86,-14.03,12.5
11:26:13.547,-5.76,-11.83,17.49
11:26:13.741,-8.8,-7.82,25.01
11:26:13.936,-9.97,-6.64,16.72
11:26:14.130,2.85,-1.5,17.09
11:26:14.326,-39.09,-2.96,13.73
11:26:14.522,145.93,-15.78,-55.47
11:26:14.716,-46.48,6.62,-54.44
11:26:14.911,-54.36,23.4,-63.83
11:26:15.107,-43.68,22.07,-60.88
11:26:15.300,-38.45,22.32,-47.52
11:26:15.495,-33.97,28.64,-37.25
11:26:15.739,-23.91,18.92,-25.54
11:26:15.890,-23.07,12.84,-24.44
11:26:16.081,-17.75,11.13,-23.6
11:26:16.275,-9.59,22.31,-20.74
11:26:16.520,-4.11,18.67,-19.8
11:26:16.665,-0.46,13.43,-20.57
11:26:16.862,-4.41,6.55,-23.34
11:26:17.059,-7.14,4.54,-24.48
11:26:17.251,-13.33,7.18,-22.72
11:26:17.446,-15.48,5.98,-24.05
11:26:17.689,-15.06,1.93,-26.39
11:26:17.886,-10.51,1.08,-27.72
11:26:18.079,-12.96,-3.23,-32.09
11:26:18.326,-14.49,-2.69,-31.43
11:26:18.469,-17.74,-14.08,-26.15
11:26:18.666,-20.17,-22.88,-24.78
11:26:18.860,-20.31,-23.58,-25.36
11:26:19.054,-22.92,-27.92,-26.06
11:26:19.249,-23.15,-23.53,-27.65
11:26:19.446,-20.68,-16.68,-29.91
11:26:19.640,-28.79,-20.54,-14.42
11:26:19.834,118.23,1.94,-35.44
11:26:20.032,-25.99,-16.62,-52.97
11:26:20.226,-14.42,-21.43,-57.71
11:26:20.421,-15.66,-31.35,-54.39
11:26:20.615,-24.18,-31.06,-42.97
11:26:20.809,-23.73,-30.1,-38.0
11:26:21.006,-18.88,-34.02,-38.98
11:26:21.201,-3.63,-36.61,-47.46
11:26:21.394,-2.27,-36.22,-52.78
11:26:21.639,-2.2,-40.29,-57.36
11:26:21.784,7.69,-27.25,-70.53
11:26:22.028,17.81,-33.63,-78.02
11:26:22.226,14.13,-33.72,-76.23
11:26:22.466,10.39,-31.26,-76.02
11:26:22.613,11.1,-27.29,-81.7
11:26:22.809,9.45,-30.63,-87.05
11:26:23.004,5.47,-22.48,-89.89
11:26:23.198,0.56,-27.69,-94.42
11:26:23.395,-5.68,-24.98,-93.86
11:26:23.589,-6.78,-21.18,-98.28
11:26:23.785,-8.97,-22.59,-100.12
11:26:23.978,-8.73,-23.57,-103.94
11:26:24.174,-9.16,-29.26,-105.42
11:26:24.369,-37.35,-37.48,-76.25
11:26:24.563,-9.46,-60.49,-89.69
11:26:24.758,-58.45,-78.35,-44.92
11:26:24.995,-90.63,-80.14,-2.2
11:26:25.149,-79.15,-84.28,-11.7
11:26:25.343,-6.0,-80.97,-78.4
11:26:25.541,-9.73,-78.99,-70.07
11:26:25.735,8.08,-63.72,-88.12
11:26:25.939,2.51,-54.85,-85.67
11:26:26.221,-3.47,-46.97,-84.85
11:26:26.371,-4.02,-40.04,-84.43
11:26:26.562,-4.9,-37.53,-86.42
11:26:26.760,-0.33,-30.28,-91.29
11:26:26.959,-2.77,-25.14,-92.59
11:26:27.149,-4.34,3.02,-90.02
11:26:27.342,25.57,30.03,-84.22
11:26:27.636,-143.27,0.0,-160.6
11:26:27.731,55.1,1.54,-174.71
11:26:27.927,66.33,2.79,-166.19
11:26:28.124,25.53,3.53,-162.84
11:26:28.320,-4.41,23.59,-130.98
11:26:28.520,-46.41,21.16,-141.6
11:26:28.707,-70.28,-3.26,-122.3
11:26:28.902,-68.24,0.24,-168.21
11:26:29.097,-72.4,17.35,147.43
11:26:29.292,-64.65,10.8,159.4
11:26:29.487,-66.58,-9.96,169.93
11:26:29.772,-83.11,-5.73,-149.71
11:26:29.879,-73.02,-9.07,-154.8
11:26:30.124,-63.35,-17.03,-156.78
11:26:30.273,-59.8,-19.96,-154.95
11:26:30.465,-63.83,-23.67,-144.36
11:26:30.806,-74.39,-34.23,-137.64
11:26:30.903,-79.76,-40.61,-135.49
11:26:31.096,-73.44,-45.22,-138.81
11:26:31.292,-63.73,-47.26,-142.34
11:26:31.487,-31.55,-32.19,-157.48
11:26:31.681,-23.52,-27.38,-162.71
11:26:31.878,-10.81,-35.27,-163.72
11:26:32.071,-11.66,-46.14,-159.18
11:26:32.272,-22.19,-48.36,-148.76
11:26:32.461,-20.27,-55.16,-150.95
11:26:32.657,-7.52,-59.74,-153.53
11:26:32.855,15.06,-60.66,-169.81
11:26:33.047,61.01,-40.75,149.06
11:26:33.241,72.53,-16.75,132.64
11:26:33.436,77.81,-0.29,111.27
11:26:33.634,79.71,-0.51,107.23
11:26:33.829,79.41,-8.4,108.82
11:26:34.020,80.66,-10.65,113.03
11:26:34.217,82.74,-6.59,117.51
11:26:34.410,84.78,-11.61,117.65
11:26:34.607,88.91,-11.06,119.75
11:26:34.801,90.24,-9.2,114.35
11:26:35.045,90.82,-3.63,106.84
11:26:35.240,90.13,1.03,99.59
11:26:35.437,91.05,3.87,96.99
11:26:35.630,91.57,2.7,96.39
11:26:35.826,92.5,3.04,98.14
11:26:36.020,88.69,2.37,92.23
11:26:36.214,86.15,0.33,81.82
11:26:36.411,85.94,3.94,71.26
11:26:36.604,84.01,11.52,58.52
11:26:36.799,81.41,14.45,46.63
11:26:36.995,79.25,12.59,39.56
11:26:37.190,81.53,10.73,38.04
11:26:37.384,79.12,9.86,31.65
11:26:37.585,73.89,2.75,21.44
11:26:37.774,78.31,11.46,22.14
11:26:37.971,73.32,17.49,5.75
11:26:38.167,72.23,12.93,-5.71
11:26:38.360,77.37,10.15,-5.21
11:26:38.554,77.88,6.47,2.02
11:26:38.752,74.49,4.15,-5.42
11:26:38.945,65.93,-19.92,10.53
11:26:39.140,37.79,-33.45,49.7
11:26:39.383,-2.45,-32.23,94.08
11:26:39.582,-13.28,-39.86,104.85
11:26:39.782,-21.03,-38.88,112.94
11:26:39.969,-24.97,-31.94,116.63
11:26:40.163,-21.07,-22.96,113.33
11:26:40.381,-19.83,4.35,106.8
11:26:40.554,-20.66,15.79,102.7
11:26:40.749,-15.7,-1.21,94.9
11:26:40.944,-21.15,-2.19,80.02
11:26:41.139,-20.6,-1.48,97.16
11:26:41.334,-15.21,-7.56,107.91
11:26:41.537,-15.34,-11.55,110.66
11:26:41.773,-14.25,-10.73,109.63
11:26:41.919,-14.53,-9.55,108.17
11:26:42.115,-17.95,-7.63,108.11
11:26:42.309,-20.76,-6.72,106.09
11:26:42.504,-24.01,-2.35,103.77
11:26:42.699,-20.69,-0.71,102.11
11:26:42.896,-20.64,8.42,94.68
11:26:43.094,-12.93,6.66,63.3
11:26:43.286,-2.53,7.38,27.01
11:26:43.528,-9.28,-19.0,41.93
11:26:43.723,32.16,-10.93,32.94
11:26:43.921,62.91,-32.2,11.88
11:26:44.112,64.76,-36.95,11.67
11:26:44.308,70.49,-40.92,6.87
11:26:44.504,73.63,-42.83,-2.09
11:26:44.698,74.58,-43.14,-8.69
11:26:44.892,76.77,-42.73,-16.69
11:26:45.087,77.82,-41.85,-23.83
11:26:45.283,78.49,-41.02,-30.02
11:26:45.479,78.74,-40.75,-35.13
11:26:45.673,79.62,-39.94,-40.21
11:26:45.869,80.06,-39.55,-44.82
11:26:46.067,78.5,-39.14,-48.65
11:26:46.259,79.62,-38.1,-54.84
11:26:46.454,87.21,-43.19,-62.32
11:26:46.647,86.16,-46.75,-60.82
11:26:46.843,84.67,-44.84,-66.09
11:26:47.037,85.38,-42.29,-69.39
11:26:47.233,84.92,-41.52,-73.96
11:26:47.433,86.25,-38.9,-82.54
11:26:47.625,91.49,-34.03,-88.21
11:26:47.867,86.77,-30.52,-86.54
11:26:48.063,85.22,-23.84,-92.21
11:26:48.257,86.48,-20.72,-96.07
11:26:48.453,57.78,-11.81,-87.19
11:26:48.647,44.73,-16.38,-102.43
11:26:48.841,44.34,-16.16,-109.94
11:26:49.037,42.94,-24.47,-119.29
11:26:49.233,37.61,-28.09,-123.24
11:26:49.474,29.74,-25.0,-130.9
11:26:49.622,34.89,-17.77,-157.94
11:26:49.819,29.89,-8.25,-173.22
11:26:50.011,35.53,1.81,168.27
11:26:50.206,35.75,-7.9,155.15
11:26:50.401,37.11,-16.64,146.3
11:26:50.597,40.18,-22.55,136.91
11:26:50.794,36.7,-21.34,137.27
11:26:50.988,39.19,-24.97,141.49
11:26:51.182,42.83,-29.84,130.72
11:26:51.377,40.75,-28.7,124.71
11:26:51.575,45.26,-14.87,125.2
11:26:51.770,44.15,-16.92,113.24
11:26:51.961,50.12,-22.35,95.45
11:26:52.206,54.18,-27.61,88.83
11:26:52.403,58.38,-26.79,87.08
11:26:52.595,61.21,-28.63,81.12
11:26:52.790,62.69,-28.08,77.18
11:26:52.987,63.52,-26.8,73.77
11:26:53.183,64.22,-26.13,69.86
11:26:53.376,64.7,-25.99,66.36
11:26:53.574,65.37,-27.06,61.41
11:26:53.771,66.6,-27.04,58.55
11:26:53.961,68.35,-27.59,53.15
11:26:54.155,69.15,-28.43,48.56
11:26:54.350,70.19,-28.28,43.41
11:26:54.595,70.01,-28.2,40.04
11:26:54.743,70.06,-28.04,37.01
11:26:54.937,68.7,-30.08,35.54
11:26:55.131,67.91,-29.24,31.95
11:26:55.331,69.0,-29.33,27.54
11:26:55.526,70.14,-29.1,22.73
11:26:55.717,72.47,-30.48,16.36
11:26:55.910,72.88,-32.53,12.19
11:26:56.105,75.09,-34.38,7.12
11:26:56.305,75.91,-37.18,2.26
11:26:56.643,77.86,-39.29,-2.33
11:26:56.742,77.55,-39.74,-10.52
11:26:56.983,76.38,-37.86,-9.3
11:26:57.131,93.68,-22.17,-2.21
11:26:57.323,114.82,-4.56,5.52
11:26:57.519,120.65,-14.82,19.82
11:26:57.714,111.22,-19.11,19.59
11:26:57.909,107.54,-26.36,21.31
11:26:58.152,112.19,-32.83,16.54
11:26:58.300,107.96,-44.87,26.69
11:26:58.495,88.99,-39.41,41.62
11:26:58.691,93.1,-60.27,32.17
11:26:58.933,91.53,-44.33,38.2
11:26:59.079,104.85,-6.97,16.51
11:26:59.276,106.99,4.67,15.92
11:26:59.469,106.83,20.41,10.05
11:26:59.664,111.69,5.61,21.61
11:26:59.859,98.35,-6.73,12.58
11:27:00.054,101.18,-8.93,6.49
11:27:00.249,95.76,-1.79,0.35
11:27:00.444,97.51,13.88,-6.27
11:27:00.640,93.2,24.43,-14.69
11:27:00.883,86.2,20.82,-25.95
11:27:01.078,80.69,9.17,-33.89
11:27:01.273,87.49,0.39,-22.19
11:27:01.469,84.7,3.3,-32.18
11:27:01.664,85.57,15.34,-39.74
11:27:01.858,61.5,-0.01,-76.47
11:27:02.053,54.69,-27.32,-101.76
11:27:02.250,51.48,-30.59,-100.41
11:27:02.443,73.11,-11.76,-79.93
11:27:02.639,-84.56,0.0,-49.89
11:27:02.835,90.6,-23.66,-41.03
11:27:03.063,94.31,-36.38,-51.44
11:27:03.224,94.53,-16.52,-65.37
11:27:03.419,98.59,-9.42,-69.31
11:27:03.614,101.81,-9.99,-73.27
11:27:03.808,100.89,-20.92,-77.92
11:27:04.005,97.98,-16.81,-78.93
11:27:04.199,95.1,-6.56,-88.58
11:27:04.393,94.26,-0.36,-98.58
11:27:04.588,94.19,0.4,-104.98
11:27:04.786,93.84,-0.9,-108.84
11:27:04.978,92.29,-0.11,-111.86
11:27:05.222,90.55,1.03,-116.8
11:27:05.417,89.91,3.34,-121.95
11:27:05.614,88.81,5.23,-128.11
11:27:05.808,87.65,7.39,-134.25
11:27:06.002,85.19,8.49,-142.01
11:27:06.200,79.41,7.23,-152.94
11:27:06.392,75.2,15.52,-165.21
11:27:06.587,64.53,16.96,175.31
11:27:06.782,55.59,6.88,165.78
11:27:06.981,48.03,-7.19,165.04
11:27:07.172,40.05,-16.15,167.2
11:27:07.367,36.01,-22.85,169.93
11:27:07.562,36.64,-29.68,172.22
11:27:07.757,45.13,-52.02,161.45
11:27:07.954,67.89,-57.04,138.34
11:27:08.148,78.62,-60.41,127.24
11:27:08.345,64.74,-52.72,142.97
11:27:08.537,55.42,-60.55,147.65
11:27:08.733,70.34,-50.95,138.92
11:27:08.927,90.5,-27.89,143.55
11:27:09.123,105.89,-6.36,131.39
11:27:09.316,100.96,3.02,114.01
11:27:09.560,97.0,-2.76,102.78
11:27:09.755,99.73,-0.81,95.3
11:27:09.950,100.73,-1.59,91.43
11:27:10.151,98.26,1.44,87.28
11:27:10.347,94.43,6.91,82.35
11:27:10.584,91.75,12.34,74.67
11:27:10.730,94.29,13.41,75.49
11:27:10.927,95.18,10.46,81.01
11:27:11.120,97.68,3.25,85.9
11:27:11.317,99.76,1.21,84.73
11:27:11.510,99.54,3.84,80.65
11:27:11.706,97.52,12.96,74.02
11:27:11.901,91.66,16.54,63.66
11:27:12.096,83.66,17.07,49.31
11:27:12.291,79.34,17.06,39.27
11:27:12.486,77.3,17.57,31.09
11:27:12.681,75.94,17.93,23.93
11:27:12.876,75.29,18.84,16.89
11:27:13.071,75.92,20.12,10.68
11:27:13.266,74.68,19.18,3.78
11:27:13.463,73.02,17.09,-4.38
11:27:13.656,72.06,15.36,-9.58
11:27:13.901,72.19,17.09,-15.37
11:27:14.096,69.01,14.16,-25.36
11:27:14.290,67.45,16.27,-36.96
11:27:14.484,68.43,15.61,-45.99
11:27:14.680,71.08,16.24,-47.78
11:27:14.875,70.58,15.65,-49.42
11:27:15.070,68.37,12.16,-55.85
11:27:15.266,70.58,18.12,-64.79
11:27:15.459,71.82,25.68,-70.57
11:27:15.664,63.79,13.65,-75.27
11:27:15.850,71.23,15.5,-78.66
11:27:16.095,74.87,16.15,-81.55
11:27:16.240,75.16,22.27,-89.6
11:27:16.435,72.8,26.15,-95.87
11:27:16.630,66.53,16.44,-99.74
11:27:16.825,58.03,-2.83,-102.54
11:27:17.020,45.07,-24.06,-97.91
11:27:17.216,36.53,-25.11,-84.93
11:27:17.411,41.57,-43.32,-96.64
11:27:17.606,53.4,-50.62,-112.63
11:27:17.799,53.68,-61.95,-118.67
11:27:17.995,56.7,-60.58,-118.88
11:27:18.239,56.39,-61.58,-121.5
11:27:18.434,56.62,-61.01,-126.29
11:27:18.630,56.43,-60.14,-130.87
11:27:18.862,57.51,-59.87,-135.83
11:27:19.018,56.83,-60.46,-138.54
11:27:19.215,57.77,-60.66,-143.97
11:27:19.409,59.4,-59.92,-148.86
11:27:19.604,59.26,-59.42,-151.79
11:27:19.799,60.54,-58.58,-156.58
11:27:19.993,61.0,-58.43,-161.6
11:27:20.188,59.81,-60.7,-164.88
11:27:20.383,58.72,-60.46,-167.81
11:27:20.580,58.47,-60.44,-171.71
11:27:20.823,58.74,-60.09,-176.52
11:27:21.018,58.74,-59.51,179.24
11:27:21.164,58.9,-58.85,174.73
11:27:21.360,59.24,-58.06,169.94
11:27:21.553,59.71,-57.14,164.98
11:27:21.798,61.01,-57.04,158.24
11:27:21.948,60.99,-57.06,152.72
11:27:22.188,63.74,-57.72,144.76
11:27:22.334,62.29,-56.74,142.51
11:27:22.626,63.15,-56.53,136.89
11:27:22.773,62.13,-54.98,132.21
11:27:22.968,61.76,-52.85,126.37
11:27:23.164,85.48,-41.37,74.52
11:27:23.358,126.2,-55.57,22.17
11:27:23.553,131.56,-56.23,21.01
11:27:23.748,135.26,-54.59,30.93
11:27:23.942,112.24,-36.47,68.4
11:27:24.140,103.84,-67.81,75.14
11:27:24.333,-99.46,-46.16,-93.66
11:27:24.528,-68.52,-50.87,-118.19
11:27:24.771,-34.55,-63.03,-140.49
11:27:24.918,100.2,-34.47,111.43
11:27:25.112,119.54,-25.33,101.06
11:27:25.348,129.68,-4.72,95.68
11:27:25.503,134.43,-7.11,97.14
11:27:25.697,124.98,-15.3,87.94
11:27:25.893,125.56,-20.33,84.86
11:27:26.087,123.29,-12.94,93.39
11:27:26.282,121.1,-5.37,93.75
11:27:26.477,116.11,-5.8,84.49
11:27:26.721,113.96,-3.3,79.32
11:27:26.916,111.49,3.14,75.46
11:27:27.112,109.52,8.12,72.02
11:27:27.306,99.53,9.63,58.23
11:27:27.501,87.37,-10.67,46.96
11:27:27.697,73.7,-35.06,42.45
11:27:27.891,43.99,-58.52,58.73
11:27:28.089,-32.05,-54.31,128.04
11:27:28.288,-30.46,-53.83,144.08
11:27:28.478,-12.76,-33.78,102.32
11:27:28.671,-7.88,-46.4,97.89
11:27:28.867,40.26,-60.04,66.41
11:27:29.060,73.15,-48.06,34.55
11:27:29.256,62.19,-49.18,34.06
11:27:29.450,61.26,-56.72,29.57
11:27:29.694,49.33,-56.34,34.84
11:27:29.841,10.04,-49.38,63.37
11:27:30.039,-2.91,-45.72,73.64
11:27:30.231,1.04,-46.4,68.98
11:27:30.427,5.39,-42.78,68.15
11:27:30.623,-24.83,-38.12,72.07
11:27:30.816,-24.76,-40.29,72.93
11:27:31.061,3.04,-55.58,56.36
11:27:31.259,1.48,-57.22,45.78
11:27:31.450,39.28,-68.14,13.86
11:27:31.645,37.18,-65.28,11.73
11:27:31.841,30.9,-64.12,13.31
11:27:32.036,31.98,-65.35,6.97
11:27:32.229,32.18,-64.43,3.49
11:27:32.425,31.53,-63.57,-0.45
11:27:32.662,32.95,-62.9,-6.79
11:27:32.815,32.19,-62.47,-9.14
11:27:33.011,36.82,-64.27,-15.14
11:27:33.206,30.7,-60.09,-9.53
11:27:33.400,32.75,-55.13,-14.61
11:27:33.596,33.67,-53.35,-20.92
11:27:33.790,31.2,-52.95,-24.21
11:27:33.985,30.37,-56.77,-28.22
11:27:34.180,21.16,-66.22,-26.97
11:27:34.376,50.57,-78.81,-59.52
11:27:34.571,50.13,-71.12,-55.06
11:27:34.766,81.66,-65.61,-88.73
11:27:34.960,75.83,-52.57,-95.21
11:27:35.155,63.67,-48.97,-100.38
11:27:35.448,59.21,-48.55,-104.59
11:27:35.596,59.79,-51.37,-109.72
11:27:35.838,57.12,-47.46,-111.63
11:27:35.984,57.79,-43.95,-117.54
11:27:36.178,68.66,-40.84,-140.21
11:27:36.373,79.35,-40.87,-164.2
11:27:36.568,81.48,-36.31,-176.53
11:27:36.763,84.14,-36.18,-177.93
11:27:36.958,81.99,-35.21,175.66
11:27:37.161,78.85,-35.05,172.11
11:27:37.396,84.39,-35.41,168.06
11:27:37.543,87.54,-33.08,169.22
11:27:37.738,91.83,-29.32,166.82
11:27:37.933,89.75,-27.12,160.59
11:27:38.128,92.18,-14.0,147.03
11:27:38.323,97.32,10.85,150.0
11:27:38.518,99.47,18.48,151.19
11:27:38.713,85.8,4.29,155.94
11:27:38.908,82.73,15.54,138.61
11:27:39.103,84.97,45.38,130.69
11:27:39.299,80.39,39.56,121.53
11:27:39.541,71.11,16.39,104.01
11:27:39.736,62.1,22.31,87.06
11:27:39.932,44.12,2.61,63.8
11:27:40.127,38.74,-2.34,49.29
11:27:40.322,53.58,2.55,51.83
11:27:40.517,49.56,-6.48,35.12
11:27:40.713,50.95,-8.95,10.58
11:27:40.907,57.35,-10.87,-2.91
11:27:41.101,60.12,-13.5,-15.37
11:27:41.298,65.45,-11.69,-20.51
11:27:41.492,65.37,-11.21,-16.53
11:27:41.687,64.17,-14.79,-14.66
11:27:41.882,67.13,-14.18,-16.25
11:27:42.077,72.02,-9.47,-19.18
11:27:42.272,74.43,-9.33,-22.12
11:27:42.467,75.33,-10.86,-26.79
11:27:42.662,76.59,-9.58,-31.2
11:27:42.857,75.96,-9.97,-43.32
11:27:43.053,73.2,-10.4,-62.32
11:27:43.247,70.64,-0.46,-83.98
11:27:43.442,63.06,-3.21,-102.71
11:27:43.637,48.47,-18.24,-108.61
11:27:43.833,23.85,-39.98,-91.81
11:27:44.076,-1.22,-44.95,-62.88
11:27:44.271,-10.12,-44.95,-48.65
11:27:44.466,-44.18,-51.59,-7.29
11:27:44.660,-53.49,-32.18,22.36
11:27:44.856,-55.84,-12.9,46.59
11:27:45.051,-59.16,-6.35,55.3
11:27:45.246,-56.6,-8.24,57.01
11:27:45.441,-51.95,-7.12,52.25
11:27:45.635,-47.39,-13.03,50.28
11:27:45.831,-36.33,-29.28,42.26
11:27:46.026,-26.39,-53.25,36.0
11:27:46.220,-2.02,-56.94,-7.56
11:27:46.416,7.56,-52.74,-21.01
11:27:46.611,-2.05,-50.46,-24.76
11:27:46.806,-36.97,-34.14,2.91
11:27:47.001,-64.17,0.35,9.32
11:27:47.198,-50.53,-32.43,20.47
11:27:47.391,18.25,-41.59,-23.59
11:27:47.586,-36.04,-83.42,13.48
11:27:47.781,61.37,14.65,56.23
11:27:47.976,-93.8,-34.04,14.92
11:27:48.171,42.55,11.54,88.03
11:27:48.415,-175.49,-60.0,175.72
11:27:48.609,140.75,-39.2,-127.56
11:27:48.804,133.3,-41.85,-98.62
11:27:49.001,130.36,-55.69,-110.59
11:27:49.195,132.47,-62.68,-119.19
11:27:49.390,132.45,-73.28,-110.09
11:27:49.587,75.7,-78.53,-48.02
11:27:49.779,80.73,-74.64,-55.91
11:27:49.976,72.53,-76.15,-50.84
11:27:50.172,48.35,-72.47,-20.69
11:27:50.365,30.13,-59.36,5.02
11:27:50.560,29.83,-51.69,16.55
11:27:50.755,44.31,-48.97,6.04
11:27:50.998,46.75,-59.22,-0.72
11:27:51.144,51.76,-59.37,-8.88
11:27:51.340,49.02,-54.9,-13.96
11:27:51.535,63.55,-42.68,-27.24
11:27:51.729,83.26,-48.15,-45.3
11:27:51.925,74.83,-46.53,-29.12
11:27:52.120,46.99,-43.55,6.18
11:27:52.316,37.99,-42.8,22.81
11:27:52.511,35.25,-52.87,18.06
11:27:52.754,47.74,-60.88,14.06
11:27:52.948,26.48,-17.25,70.71
11:27:53.143,-16.03,-71.95,143.36
11:27:53.338,-28.74,-64.55,172.92
11:27:53.533,38.96,-46.01,122.34
11:27:53.777,63.51,-22.04,91.33
11:27:53.923,74.07,-18.95,69.45
11:27:54.118,74.11,-26.37,60.87
11:27:54.313,68.49,-42.11,56.89
11:27:54.509,62.23,-39.38,64.83
11:27:54.704,63.72,-54.1,66.66
11:27:54.899,80.56,-60.68,46.35
11:27:55.094,87.91,-34.52,47.43
11:27:55.386,88.05,-21.36,36.98
11:27:55.483,88.73,-14.21,22.4
11:27:55.679,86.89,-8.62,15.3
11:27:55.874,85.26,-12.81,4.12
11:27:56.077,81.86,-18.4,10.86
11:27:56.263,84.97,-20.15,23.51
11:27:56.460,93.85,-30.95,24.44
11:27:56.653,89.28,-35.36,44.12
11:27:56.848,94.67,-25.92,40.47
11:27:57.092,95.73,-7.41,32.9
11:27:57.287,97.68,-10.02,18.61
11:27:57.482,98.39,-5.96,18.65
11:27:57.677,101.58,-4.93,17.83
11:27:57.872,96.77,0.05,16.13
11:27:58.067,99.65,0.38,26.89
11:27:58.311,99.65,-5.38,22.67
11:27:58.457,105.62,-9.63,15.5
11:27:58.652,109.46,-9.15,20.16
11:27:58.898,112.05,-8.45,30.1
11:27:59.043,105.77,-7.84,26.06
11:27:59.287,108.9,-12.3,29.92
11:27:59.432,109.21,-13.18,30.01
11:27:59.629,110.1,-12.01,30.51
11:27:59.824,109.14,-7.49,30.15
11:28:00.066,106.76,-2.89,25.29
11:28:00.212,105.28,0.47,20.35
11:28:00.409,105.92,1.64,22.64
11:28:00.604,103.92,3.31,21.25
11:28:00.798,96.43,5.85,17.11
11:28:01.043,99.09,7.7,25.11
11:28:01.191,96.99,-0.9,26.57
11:28:01.435,94.38,0.25,17.32
11:28:01.675,90.8,1.93,11.95
11:28:01.823,89.78,4.75,3.91
11:28:02.019,85.32,7.36,-9.64
11:28:02.212,82.57,15.63,-22.28
11:28:02.407,75.81,12.3,-39.93
11:28:02.601,70.74,8.68,-57.86
11:28:02.799,67.84,15.52,-73.97
11:28:03.188,64.82,17.44,-85.39
11:28:03.189,65.54,11.85,-92.26
11:28:03.384,67.55,4.4,-95.65
11:28:03.576,71.93,7.47,-101.37
11:28:03.919,72.95,10.77,-110.24
11:28:04.015,74.87,9.33,-117.39
11:28:04.162,75.63,7.18,-122.31
11:28:04.359,76.99,6.7,-126.04
11:28:04.551,77.55,6.87,-131.34
11:28:04.746,79.38,8.57,-136.12
11:28:05.039,80.64,9.12,-140.15
11:28:05.137,80.93,8.5,-144.31
11:28:05.331,81.66,9.9,-147.78
11:28:05.527,81.78,10.53,-152.68
11:28:05.818,82.31,11.5,-157.77
11:28:06.013,82.14,12.45,-163.21
11:28:06.159,82.2,13.83,-168.65
11:28:06.355,81.56,15.1,-174.42
11:28:06.549,80.45,15.46,178.72
11:28:06.744,79.77,16.17,171.68
11:28:06.939,78.67,16.47,164.37
11:28:07.134,78.18,16.95,157.58
11:28:07.329,79.49,17.81,153.36
11:28:07.573,82.33,19.71,152.18
11:28:07.768,86.75,21.08,154.62
11:28:07.914,90.44,20.29,158.83
11:28:08.109,94.31,20.38,163.75
11:28:08.304,92.8,16.22,160.14
11:28:08.500,95.28,17.34,158.24
11:28:08.695,96.85,18.82,157.66
11:28:08.939,94.39,17.35,152.69
11:28:09.086,91.59,14.45,146.26
11:28:09.281,95.63,19.3,146.88
11:28:09.475,96.84,25.89,143.84
11:28:09.671,91.66,21.99,136.32
11:28:09.914,88.31,19.33,132.58
11:28:10.110,89.86,27.28,130.2
11:28:10.304,90.77,28.23,125.86
11:28:10.499,85.8,24.49,116.29
11:28:10.694,82.25,26.12,107.55
11:28:10.889,79.25,30.1,98.93
11:28:11.084,73.95,27.26,87.39
11:28:11.279,73.66,25.7,79.88
11:28:11.475,73.89,27.51,74.93
11:28:11.670,71.89,26.21,69.12
11:28:11.864,70.04,23.74,62.02
11:28:12.108,70.83,24.79,55.6
11:28:12.255,68.26,26.35,47.19
11:28:12.449,73.65,25.29,53.07
11:28:12.694,71.18,8.8,47.62
11:28:12.840,77.08,9.28,46.92
11:28:13.034,77.24,32.38,38.51
11:28:13.229,69.8,44.62,30.38
11:28:13.424,70.71,33.17,44.74
11:28:13.619,75.96,16.88,55.81
11:28:13.814,91.26,-2.28,60.56
11:28:14.009,100.8,-25.06,57.7
11:28:14.205,90.88,-14.26,51.28
11:28:14.497,82.92,9.86,53.82
11:28:14.692,85.23,26.91,44.66
11:28:14.838,69.1,23.43,18.96
11:28:15.034,65.74,16.78,11.12
11:28:15.228,69.04,-4.36,17.05
11:28:15.423,76.05,-17.31,24.04
11:28:15.619,79.09,-3.99,16.72
11:28:15.813,79.53,13.23,14.85
11:28:16.008,75.08,23.92,1.15
11:28:16.203,69.47,27.91,-15.6
11:28:16.398,64.24,16.38,-22.11
11:28:16.593,63.15,15.84,-29.69
11:28:16.836,61.37,16.4,-41.43
11:28:16.983,62.62,13.56,-49.26
11:28:17.179,63.77,14.41,-56.32
11:28:17.374,66.45,13.85,-59.94
11:28:17.569,67.32,10.78,-64.78
11:28:17.764,67.31,7.08,-71.11
11:28:17.958,69.84,11.3,-76.93
11:28:18.152,70.54,11.29,-82.5
11:28:18.348,71.95,9.89,-86.91
11:28:18.592,72.69,8.66,-91.34
11:28:18.787,73.36,8.48,-98.15
11:28:18.982,73.61,9.47,-105.22
11:28:19.177,73.81,9.45,-111.2
11:28:19.374,72.28,5.59,-117.73
11:28:19.567,70.2,2.45,-127.44
11:28:19.761,70.34,9.12,-137.93
11:28:19.957,69.15,9.04,-147.89
11:28:20.152,69.0,6.5,-156.98
11:28:20.348,69.89,4.63,-164.76
11:28:20.542,70.93,4.54,-171.0
11:28:20.738,71.81,6.39,-175.48
11:28:20.980,72.0,6.3,-179.94
11:28:21.129,74.1,5.37,176.32
11:28:21.322,76.67,5.07,172.23
11:28:21.516,80.24,7.33,170.72
11:28:21.712,80.64,9.91,165.62
11:28:21.906,82.37,9.5,162.37
11:28:22.101,84.56,8.56,162.61
11:28:22.347,98.71,-1.76,-163.77
11:28:22.492,88.46,-40.27,-150.0
11:28:22.688,86.34,-68.41,-155.77
11:28:22.935,43.26,-60.76,-133.23
11:28:23.128,43.89,-54.23,-160.41
11:28:23.371,59.28,-59.7,-166.09
11:28:23.518,92.07,-51.0,176.09
11:28:23.712,82.73,-46.52,162.65
11:28:23.956,64.11,-46.39,-179.26
11:28:24.100,71.74,-10.7,-171.51
11:28:24.338,71.83,-4.81,171.11
11:28:24.491,46.14,-28.69,-161.65
11:28:24.688,54.9,-59.05,-174.7
11:28:24.880,96.74,-18.95,158.69
11:28:25.225,105.4,4.62,170.14
11:28:25.320,105.77,-17.49,150.7
11:28:25.467,105.32,-32.08,150.07
11:28:25.663,111.54,-4.5,149.11
11:28:25.904,125.82,6.07,168.02
11:28:26.050,116.03,4.77,151.21
11:28:26.247,112.59,7.88,146.41
11:28:26.441,104.78,0.91,137.49
11:28:26.637,97.15,2.44,127.43
11:28:26.832,87.1,15.64,114.35
11:28:27.028,80.81,28.12,103.72
11:28:27.303,72.66,28.48,91.21
11:28:27.467,69.66,20.1,85.2
11:28:27.660,70.99,23.18,77.1
11:28:27.904,70.52,23.3,69.87
11:28:28.050,68.74,20.37,62.04
11:28:28.245,67.62,20.19,54.36
11:28:28.439,67.3,19.56,47.46
11:28:28.634,66.07,16.63,39.71
11:28:28.829,65.52,15.21,30.96
11:28:29.024,67.05,16.49,24.18
11:28:29.221,68.21,16.21,19.0
11:28:29.415,68.98,13.15,15.56
11:28:29.614,69.69,13.09,10.79
11:28:29.808,69.68,12.12,3.83
11:28:30.003,70.87,12.82,-2.13
11:28:30.194,71.62,12.79,-8.6
11:28:30.391,72.51,12.9,-13.78
11:28:30.585,73.0,10.82,-19.67
11:28:30.820,75.46,13.17,-22.78
11:28:30.977,77.08,14.93,-26.41
11:28:31.170,78.53,14.05,-29.89
11:28:31.368,79.58,12.76,-32.89
11:28:31.613,81.6,12.52,-33.41
11:28:31.934,80.33,5.95,-46.16
11:28:31.998,76.68,-3.11,-54.14
11:28:32.193,71.68,-3.45,-67.98
11:28:32.393,70.78,7.95,-78.52
11:28:32.586,64.53,10.36,-99.89
11:28:32.779,62.35,3.89,-101.55
11:28:33.010,62.39,1.45,-103.25
11:28:33.168,63.18,5.45,-113.32
11:28:33.367,61.4,10.39,-132.27
11:28:33.559,62.68,9.09,-145.47
11:28:33.754,63.27,3.09,-149.6
11:28:33.950,64.42,0.54,-157.37
11:28:34.147,65.2,-5.01,-165.27
11:28:34.340,69.08,-1.67,-172.54
11:28:34.534,71.23,-2.31,-179.13
11:28:34.733,72.29,-2.36,177.97
11:28:34.924,69.53,-11.69,172.7
11:28:35.165,68.46,-21.7,172.26
11:28:35.314,70.0,-20.02,167.24
11:28:35.509,71.41,-18.54,156.97
11:28:35.708,74.72,-23.09,147.08
11:28:35.947,78.29,-32.62,143.12
11:28:36.148,68.75,-36.33,153.26
11:28:36.339,50.16,-48.24,156.42
11:28:36.533,27.83,-52.88,-178.9
11:28:36.728,64.48,-46.65,170.31
11:28:36.922,65.6,-55.04,167.69
11:28:37.119,88.64,-52.97,148.4
11:28:37.314,83.85,-34.96,132.21
11:28:37.507,69.31,-47.48,130.83
11:28:37.703,80.99,-46.44,125.72
11:28:37.898,99.62,-52.81,131.88
11:28:38.092,19.37,-63.5,-137.32
11:28:38.288,-41.14,-75.47,-69.05
11:28:38.484,-97.73,-57.72,1.92
11:28:38.726,-88.47,-44.23,20.54
11:28:38.922,-63.39,-54.89,11.55
11:28:39.108,-71.44,-47.39,-6.4
11:28:39.263,-62.25,-73.48,6.03
11:28:39.457,-82.09,-58.65,3.88
11:28:39.653,88.68,-50.12,-176.39
11:28:39.848,96.29,-55.25,-176.25
11:28:40.042,104.42,-41.68,173.25
11:28:40.337,75.82,-39.51,172.44
11:28:40.483,56.09,-46.23,173.73
11:28:40.678,51.93,-31.18,159.94
11:28:40.912,61.88,4.12,140.78
11:28:41.067,89.49,7.25,174.05
11:28:41.264,84.47,-7.36,169.1
11:28:41.456,80.96,-26.03,167.34
11:28:41.651,88.07,-14.63,167.67
11:28:41.848,94.98,-0.53,175.51
11:28:42.044,98.84,-4.92,175.8
11:28:42.236,94.93,-5.51,171.97
11:28:42.431,93.97,-6.23,168.0
11:28:42.628,94.13,-0.02,163.77
11:28:42.821,94.12,3.83,158.31
11:28:43.025,92.8,2.86,153.58
11:28:43.212,92.14,3.87,150.24
11:28:43.455,91.9,7.13,147.38
11:28:43.605,91.55,6.94,142.35
11:28:43.799,91.81,8.38,138.02
11:28:43.993,91.68,10.26,134.31
11:28:44.186,89.76,11.18,129.07
11:28:44.430,89.91,12.83,124.04
11:28:44.674,88.37,15.28,118.69
11:28:44.820,86.48,16.17,112.91
11:28:45.017,91.64,18.08,114.84
11:28:45.209,91.83,14.28,113.15
11:28:45.623,88.99,14.38,108.52
11:28:45.624,89.1,18.48,102.61
11:28:45.798,83.07,22.63,90.25
11:28:45.989,85.99,26.39,90.74
11:28:46.237,87.62,25.0,87.54
11:28:46.381,81.79,21.85,76.31
11:28:46.577,85.26,28.69,77.73
11:28:46.819,82.05,27.52,61.33
11:28:46.965,78.07,29.02,52.06
11:28:47.161,74.0,26.0,42.72
11:28:47.356,75.54,26.89,38.57
11:28:47.553,72.88,26.92,28.65
11:28:47.745,69.49,24.6,17.36
11:28:48.038,69.04,23.42,10.05
11:28:48.135,73.22,26.6,9.01
11:28:48.381,70.9,25.45,2.05
11:28:48.525,70.58,25.7,-5.45
11:28:48.720,70.27,24.22,-12.06
11:28:48.966,68.19,22.17,-20.23
11:28:49.161,66.32,21.33,-28.88
11:28:49.354,64.74,19.47,-39.01
11:28:49.551,64.32,17.37,-47.7
11:28:49.793,64.04,16.31,-55.57
11:28:49.939,63.7,14.48,-63.63
11:28:50.134,65.02,13.32,-70.07
11:28:50.330,66.13,11.72,-76.01
11:28:50.524,67.67,11.34,-81.02
11:28:50.721,69.37,11.23,-86.85
11:28:50.916,70.95,11.1,-91.57
11:28:51.110,71.97,10.99,-97.12
11:28:51.305,72.72,10.29,-103.14
11:28:51.500,73.52,10.03,-109.55
11:28:51.695,75.75,11.45,-114.31
11:28:51.944,76.7,12.36,-118.5
11:28:52.085,77.09,13.84,-123.61
11:28:52.320,76.84,13.16,-129.86
11:28:52.474,77.97,12.68,-136.14
11:28:52.670,77.58,12.86,-142.95
11:28:52.864,76.58,12.78,-150.49
11:28:53.058,76.97,13.56,-156.85
11:28:53.352,77.56,14.16,-162.85
11:28:53.497,76.96,14.72,-169.22
11:28:53.744,77.33,15.45,-175.6
11:28:53.888,77.23,15.4,177.67
11:28:54.083,76.96,15.76,171.07
11:28:54.280,76.77,16.31,164.69
11:28:54.474,76.34,15.88,158.01
11:28:54.668,76.01,15.78,151.29
11:28:54.863,75.98,16.42,144.71
11:28:55.060,75.96,16.02,137.97
11:28:55.253,75.66,15.84,131.65
11:28:55.498,75.08,15.53,122.99
11:28:55.643,72.03,11.06,107.93
11:28:55.839,69.2,-10.79,106.68
11:28:56.032,67.41,-40.67,108.74
11:28:56.277,76.5,-60.66,100.7
11:28:56.423,86.42,-62.3,84.78
11:28:56.618,87.04,-62.64,76.39
11:28:56.814,92.57,-62.1,71.35
11:28:57.057,106.74,-61.84,69.16
11:28:57.203,112.67,-61.95,74.27
11:28:57.447,128.2,-60.86,68.03
11:28:57.641,128.59,-57.85,77.08
11:28:57.983,130.98,-34.34,91.06
11:28:58.033,119.85,-8.84,97.29
11:28:58.233,127.72,6.38,119.92
11:28:58.473,122.3,23.98,121.33
11:28:58.666,118.63,22.86,113.72
11:28:58.812,106.33,12.04,102.39
11:28:59.009,106.84,12.53,100.16
11:28:59.251,94.68,24.85,89.46
11:28:59.398,86.01,20.75,83.47
11:28:59.593,77.07,-2.83,85.51
11:28:59.835,60.32,-24.98,112.21
11:28:59.983,39.23,-35.82,143.78
11:29:00.177,40.33,-34.31,157.05
11:29:00.375,29.66,-44.24,157.25
11:29:00.567,31.7,-49.93,159.91
11:29:00.763,33.57,-49.97,156.46
11:29:01.007,30.58,-44.84,154.82
11:29:01.152,32.83,-39.63,141.19
11:29:01.347,27.93,-38.54,135.09
11:29:01.543,27.31,-37.0,129.52
11:29:01.785,26.08,-40.92,121.7
11:29:01.983,25.37,-39.44,119.04
11:29:02.177,22.6,-38.48,116.77
11:29:02.376,21.75,-39.16,113.21
11:29:02.566,21.18,-40.41,109.6
11:29:02.761,19.01,-48.65,103.7
11:29:03.004,17.55,-45.55,103.5
11:29:03.156,16.37,-43.43,100.66
11:29:03.390,15.53,-48.04,97.11
11:29:03.602,11.24,-51.71,97.89
11:29:03.790,-2.18,-44.57,108.75
11:29:03.933,-37.89,-51.66,148.06
11:29:04.168,-55.82,-48.2,152.7
11:29:04.325,-68.15,-40.18,170.96
11:29:04.516,-70.41,-37.37,174.94
11:29:04.712,-61.69,-37.17,169.54
11:29:04.914,-61.26,-39.17,174.69
11:29:05.100,-53.41,-37.38,168.07
11:29:05.299,-48.61,-39.25,162.47
11:29:05.492,-23.89,-30.36,131.49
11:29:05.688,-13.02,-22.96,109.87
11:29:05.883,11.0,-24.06,103.68
11:29:06.128,42.27,-33.99,93.75
11:29:06.324,44.24,-30.02,89.59
11:29:06.515,46.2,-27.49,88.22
11:29:06.759,44.89,-22.69,78.78
11:29:07.051,37.37,-21.53,66.53
11:29:07.099,25.27,-23.75,50.44
11:29:07.294,39.28,-28.28,12.22
11:29:07.491,60.56,-51.91,-15.71
11:29:07.686,66.95,-51.76,-24.8
11:29:07.935,71.52,-51.78,-28.58
11:29:08.123,72.49,-47.87,-28.07
11:29:08.269,69.44,-46.15,-32.66
11:29:08.465,64.88,-44.1,-35.92
11:29:08.661,64.08,-44.0,-41.25
11:29:08.857,63.27,-41.73,-46.72
11:29:09.049,65.09,-43.49,-56.9
11:29:09.343,66.48,-35.11,-53.17
11:29:09.488,80.33,-5.68,-63.6
11:29:09.635,88.54,26.89,-69.13
11:29:09.830,72.49,26.43,-84.25
11:29:10.024,57.9,16.82,-101.45
11:29:10.317,56.84,-2.82,-98.13
11:29:10.463,64.62,-3.81,-101.9
11:29:10.658,67.11,8.43,-112.59
11:29:10.856,62.16,9.22,-126.65
11:29:11.050,63.02,5.31,-138.25
11:29:11.292,68.08,5.05,-153.69
11:29:11.440,73.68,9.19,-164.14
11:29:11.634,73.93,6.17,-170.4
11:29:11.828,74.04,4.44,-173.2
11:29:12.024,75.27,2.37,-176.69
11:29:12.218,77.67,3.48,-179.48
11:29:12.462,79.23,6.06,176.07
11:29:12.609,79.87,6.52,170.72
11:29:12.805,80.08,7.21,167.88
11:29:12.998,78.56,5.2,164.19
11:29:13.198,76.05,-7.39,168.9
11:29:13.389,66.15,-34.21,-178.46
11:29:13.582,49.74,-52.73,-154.62
11:29:13.780,29.36,-55.07,-130.6
11:29:13.977,34.81,-49.13,-139.03
11:29:14.168,25.1,-40.05,-133.86
11:29:14.363,16.01,-29.21,-127.79
11:29:14.558,17.93,-29.89,-133.59
11:29:14.809,21.67,-24.16,-134.42
11:29:15.014,21.23,-26.11,-138.62
11:29:15.241,22.64,-26.77,-138.77
11:29:15.387,53.48,-24.59,173.39
11:29:15.582,53.66,-12.65,146.0
11:29:15.826,75.52,-3.32,177.74
11:29:15.972,78.62,-13.19,-156.33
11:29:16.167,70.43,-22.44,-168.13
11:29:16.361,36.41,-35.86,-149.36
11:29:16.557,18.24,-10.31,-123.7
11:29:16.752,30.43,-6.28,-123.86
11:29:16.949,34.49,-1.29,-119.58
11:29:17.143,32.84,-1.81,-117.98
11:29:17.339,28.67,-3.65,-112.07
11:29:17.532,30.68,-3.17,-100.3
11:29:17.873,20.24,-13.02,-98.71
11:29:17.922,18.55,-16.67,-100.66
11:29:18.118,15.05,-20.65,-106.8
11:29:18.320,12.4,-19.05,-105.35
11:29:18.511,-15.39,-14.44,-108.51
11:29:18.703,-29.8,-9.08,-98.88
11:29:18.946,-32.26,-10.35,-101.35
11:29:19.141,-30.79,-9.14,-101.26
11:29:19.336,-32.65,15.37,-122.89
11:29:19.532,-28.71,8.57,-110.92
11:29:19.775,-33.5,-7.62,-103.23
11:29:19.970,-36.91,-17.07,-99.66
11:29:20.122,-38.97,-19.01,-100.36
11:29:20.311,-39.2,-17.39,-105.7
11:29:20.508,-40.99,-23.88,-104.5
11:29:20.702,-40.6,-27.09,-103.4
11:29:20.896,-41.64,-28.66,-100.02
11:29:21.091,-33.79,-17.78,-103.94
11:29:21.326,-38.11,-37.26,-98.23
11:29:21.489,-63.32,-49.92,-78.99
11:29:21.680,-55.37,-48.16,-87.87
11:29:21.872,-54.44,-50.94,-88.63
11:29:22.067,-54.79,-52.46,-83.91
11:29:22.261,-46.59,-54.65,-91.13
11:29:22.458,-36.75,-51.73,-99.06
11:29:22.699,-34.78,-51.98,-105.39
11:29:22.848,-31.05,-51.02,-114.5
11:29:23.041,-28.83,-48.07,-120.89
11:29:23.237,-32.91,-45.88,-123.14
11:29:23.480,-30.82,-45.88,-127.15
11:29:23.675,-25.16,-43.87,-142.8
11:29:23.919,-31.64,-46.18,-143.39
11:29:24.114,-25.0,-41.16,-145.43
11:29:24.261,-12.34,-43.31,-157.27
11:29:24.454,-17.5,-44.95,-163.19
11:29:24.650,-8.67,-43.83,-170.02
11:29:24.844,-7.45,-51.0,176.21
11:29:25.041,0.72,-53.01,156.88
11:29:25.235,2.66,-54.76,145.57
11:29:25.431,16.17,-47.48,132.15
11:29:25.629,28.67,-40.12,121.58
11:29:25.820,171.02,0.14,113.41
11:29:26.014,-4.35,6.09,108.95
11:29:26.211,3.42,12.1,104.59
11:29:26.405,5.72,13.97,107.65
11:29:26.602,8.23,12.4,106.77
11:29:26.798,0.3,5.36,109.26
11:29:26.992,-5.3,0.49,108.94
11:29:27.185,-1.64,-0.26,106.63
11:29:27.432,-3.74,-0.32,104.95
11:29:27.575,-5.14,-1.16,105.96
11:29:27.819,-2.12,17.03,122.7
11:29:28.014,0.21,31.56,97.18
11:29:28.208,3.5,25.81,92.8
11:29:28.404,-11.25,6.04,84.39
11:29:28.602,-12.01,5.54,79.61
11:29:28.794,-17.26,0.43,76.93
11:29:28.990,-17.29,-3.07,75.24
11:29:29.186,-23.18,-5.94,72.0
11:29:29.379,-19.25,-12.24,70.68
11:29:29.574,-16.42,-13.82,69.09
11:29:29.793,-14.21,-19.48,65.89
11:29:29.968,-12.87,-24.82,64.62
11:29:30.160,-14.91,-25.51,63.38
11:29:30.354,-14.39,-29.66,61.88
11:29:30.550,-13.79,-28.88,60.81
11:29:30.744,-14.58,-30.32,59.95
11:29:30.940,-15.04,-28.99,58.66
11:29:31.134,-15.18,-30.0,55.4
11:29:31.329,-12.77,-31.25,51.26
11:29:31.614,-12.85,-29.32,51.69
11:29:31.718,-14.3,-32.46,51.49
11:29:31.914,-13.39,-34.61,50.22
11:29:32.158,-11.71,-33.93,49.07
11:29:32.354,-11.44,-35.7,51.6
11:29:32.596,-10.08,-36.31,49.95
11:29:32.746,-9.89,-37.12,47.49
11:29:32.937,-9.61,-42.81,44.17
11:29:33.133,-7.53,-41.0,39.31
11:29:33.329,-6.16,-40.31,35.53
11:29:33.522,-5.4,-41.15,32.21
11:29:33.718,-10.73,-43.11,38.99
11:29:33.917,-10.68,-44.03,38.64
11:29:34.107,-10.71,-44.21,35.85
11:29:34.302,-9.17,-44.43,35.6
11:29:34.498,4.78,-54.33,24.2
11:29:34.741,34.73,-65.29,-8.28
11:29:34.887,53.54,-69.48,-24.83
11:29:35.084,-37.62,-19.19,27.9
11:29:35.278,-53.84,-34.75,32.25
11:29:35.472,-48.61,-24.36,42.59
11:29:35.669,-55.51,-29.3,51.02
11:29:35.863,-53.52,-28.09,47.98
11:29:36.361,-51.08,-29.18,47.04
11:29:36.361,-87.3,-43.22,83.8
11:29:36.499,-81.42,-47.79,85.26
11:29:36.723,-79.45,-43.79,89.77
11:29:36.887,-88.58,-39.23,111.76
11:29:37.082,-86.76,-31.86,119.01
11:29:37.276,-100.51,-27.93,124.13
11:29:37.471,-89.14,-27.57,119.66
11:29:37.716,-83.03,-30.06,115.17
11:29:37.861,-76.43,-32.79,105.61
11:29:38.056,-67.35,-36.94,102.78
11:29:38.252,-61.27,-36.89,94.99
11:29:38.449,-52.93,-36.97,83.29
11:29:38.642,-43.02,-36.37,71.03
11:29:38.837,-40.98,-35.9,66.81
11:29:39.037,-39.27,-31.85,62.51
11:29:39.229,-31.79,-28.2,56.25
11:29:39.421,-32.31,-26.75,52.4
11:29:39.617,-32.06,-26.37,48.24
11:29:39.812,-34.86,13.58,42.79
11:29:40.007,-9.02,20.63,48.77
11:29:40.201,-12.71,5.3,49.42
11:29:40.450,-12.39,5.74,43.87
11:29:40.641,-13.65,6.61,37.31
11:29:40.835,-18.48,12.07,24.42
11:29:41.032,-23.43,10.51,18.86
11:29:41.274,-25.73,7.86,24.28
11:29:41.419,-31.62,-1.92,22.28
11:29:41.619,-24.91,-8.25,5.94
11:29:41.810,-18.43,-3.66,-10.12
11:29:42.005,-23.38,15.37,8.44
11:29:42.200,-7.92,44.54,14.15
11:29:42.397,-30.02,7.15,7.7
11:29:42.640,-33.07,17.22,-1.0
11:29:42.834,-29.93,14.78,-6.42
11:29:42.982,-31.46,10.59,-6.34
11:29:43.176,-32.88,9.04,-7.69
11:29:43.420,-32.98,10.32,-11.25
11:29:43.565,-33.55,15.09,-15.5
11:29:43.762,-37.46,25.88,-10.83
11:29:43.955,-30.25,25.76,-4.68
11:29:44.151,-41.27,11.84,-12.0
11:29:44.348,-40.68,8.09,-2.75
11:29:44.540,-45.9,8.25,0.96
11:29:44.735,-52.48,3.39,7.09
11:29:44.981,-58.58,-6.4,16.34
11:29:45.175,-52.91,-0.62,15.1
11:29:45.371,-45.81,-3.94,15.17
11:29:45.564,-49.34,-6.24,9.74
11:29:45.761,-45.5,-12.68,10.34
11:29:45.953,-40.34,-15.64,9.77
11:29:46.150,-39.5,-16.01,10.13
11:29:46.349,-41.06,-18.7,10.35
11:29:46.540,-44.8,-20.52,10.89
11:29:46.734,-41.39,-24.74,8.55
11:29:46.930,-32.96,-31.08,3.79
11:29:47.173,-23.22,-36.3,-3.58
11:29:47.369,-18.48,-31.37,-7.36
11:29:47.517,-20.31,-27.78,-7.95
11:29:47.709,-23.85,-25.4,-7.95
11:29:47.912,-22.9,-22.08,-11.59
11:29:48.098,-27.57,-21.21,-6.49
11:29:48.296,-36.75,-19.04,5.46
11:29:48.489,-71.24,-8.9,48.64
11:29:48.734,-53.67,-46.49,57.39
11:29:48.883,-26.82,-49.14,41.36
11:29:49.075,-36.54,-46.83,51.38
11:29:49.317,-49.51,-49.03,62.46
11:29:49.515,-51.51,-58.54,64.63
11:29:49.708,-38.77,-65.0,54.22
11:29:50.002,-42.28,-73.54,53.21
11:29:50.097,-36.43,-70.29,50.01
11:29:50.296,-28.65,-63.11,37.68
11:29:50.488,-19.54,-58.4,29.1
11:29:50.733,-29.39,-57.24,31.29
11:29:50.878,-37.77,-65.32,29.78
11:29:51.073,3.43,-67.82,-10.8
11:29:51.267,-44.95,-44.69,26.66
11:29:51.464,-27.22,-11.23,43.76
11:29:51.658,33.62,-11.48,-3.0
11:29:51.855,-144.78,36.75,-7.26
11:29:52.051,-147.37,60.08,-11.14
11:29:52.267,-150.38,68.39,-25.43
11:29:52.437,-6.96,77.05,104.5
11:29:52.633,26.64,54.54,133.2
11:29:52.828,28.34,37.59,126.08
11:29:53.023,32.96,25.39,113.33
11:29:53.258,27.76,7.87,103.09
11:29:53.415,32.08,-1.9,102.16
11:29:53.658,28.29,-11.66,97.02
11:29:53.852,26.05,-18.14,85.65
11:29:54.095,24.51,-23.55,80.5
11:29:54.246,44.82,-36.63,66.48
11:29:54.485,53.91,-41.66,66.61
11:29:54.631,45.01,-48.63,57.63
11:29:54.827,29.5,-36.17,69.04
11:29:55.023,30.62,-37.19,70.14
11:29:55.219,23.81,-26.82,72.76
11:29:55.412,22.7,-25.65,65.83
11:29:55.607,19.12,-28.21,61.97
11:29:55.803,15.16,-30.82,60.1
11:29:56.003,17.78,-24.96,52.21
11:29:56.192,21.92,-25.17,40.79
11:29:56.387,10.9,6.79,39.37
11:29:56.582,-15.89,25.09,13.55
11:29:56.778,-12.95,26.37,-0.75
11:29:56.972,-14.21,22.41,-2.69
11:29:57.218,-13.63,14.1,-4.3
11:29:57.411,-7.54,21.47,-2.56
11:29:57.557,-0.38,13.24,3.29
11:29:57.752,-0.86,14.36,10.7
11:29:57.998,-13.32,7.65,12.77
11:29:58.192,-11.52,10.48,13.9
11:29:58.384,-3.65,18.75,13.29
11:29:58.579,-1.7,17.8,9.92
11:29:58.775,0.62,18.8,5.84
11:29:58.970,4.8,19.71,5.54
11:29:59.208,4.65,17.96,3.14
11:29:59.359,4.06,18.18,0.17
11:29:59.556,1.5,12.93,-1.01
11:29:59.752,0.19,10.38,-3.07
11:29:59.944,2.46,16.35,-2.09
11:30:00.139,1.96,16.15,-4.04
11:30:00.337,1.21,16.13,-5.31
11:30:00.529,0.49,16.12,-6.48
11:30:00.726,-9.63,4.65,-6.13
11:30:00.920,-8.23,5.07,-7.39
11:30:01.117,-8.73,-1.65,-8.75
11:30:01.310,-6.82,-3.27,-10.79
11:30:01.507,-6.07,-4.62,-12.4
11:30:01.703,-4.6,-3.39,-13.61
11:30:01.897,-6.49,-7.43,-14.93
11:30:02.091,-8.37,-9.17,-16.21
11:30:02.333,-10.44,-10.98,-16.92
11:30:02.535,-11.74,-9.67,-18.57
11:30:02.725,-11.28,-10.14,-19.96
11:30:02.920,-13.1,-14.26,-21.29
11:30:03.115,-12.72,-13.48,-22.81
11:30:03.311,-12.07,-12.82,-24.78
11:30:03.506,-18.29,-24.22,-25.98
11:30:03.702,-18.53,-21.49,-29.1
11:30:03.897,-20.68,-18.05,-32.71
11:30:04.089,-26.24,-19.83,-37.3
11:30:04.287,-26.16,-21.17,-43.22
11:30:04.531,-22.13,-18.89,-52.28
11:30:04.678,-20.74,-21.66,-56.1
11:30:04.870,-23.93,-24.15,-57.67
11:30:05.066,-23.83,-24.03,-61.34
11:30:05.260,-25.32,-26.38,-63.12
11:30:05.454,-25.07,-26.28,-65.35
11:30:05.649,-24.37,-25.35,-69.1
11:30:05.847,-27.01,-25.62,-70.89
11:30:06.043,-28.43,-27.65,-72.85
11:30:06.236,-29.29,-28.43,-74.72
11:30:06.431,-29.2,-25.17,-78.35
11:30:06.678,-30.39,-24.75,-79.76
11:30:06.868,-31.06,-26.82,-81.11
11:30:07.063,-31.03,-26.27,-83.03
11:30:07.259,-31.62,-26.93,-84.57
11:30:07.455,-32.13,-27.48,-86.37
11:30:07.648,-32.3,-29.72,-89.04
11:30:07.844,-31.09,-28.93,-91.98
11:30:08.039,-15.51,-21.31,-99.17
11:30:08.232,-29.66,-19.16,-93.46
11:30:08.427,129.96,30.28,-40.54
11:30:08.624,-59.19,-6.74,-7.12
11:30:08.818,-61.36,5.46,0.64
11:30:09.014,-54.98,-1.63,4.32
11:30:09.212,-45.98,-3.77,5.67
11:30:09.451,-41.65,-7.52,7.38
11:30:09.598,-38.21,-15.49,-2.19
11:30:09.793,-25.44,-21.32,-20.21
11:30:09.988,-8.0,-21.19,-45.0
11:30:10.184,12.12,-20.21,-64.78
11:30:10.379,21.57,-23.71,-95.37
11:30:10.623,26.74,-8.25,-105.3
11:30:10.775,16.15,-4.33,-124.01
11:30:11.011,14.93,-4.55,-131.09
11:30:11.208,17.44,-14.24,-130.57
11:30:11.401,18.11,-14.7,-137.99
11:30:11.597,21.43,-10.38,-158.72
11:30:11.795,19.95,-16.55,-178.08
11:30:11.988,24.48,-23.94,169.6
11:30:12.184,38.81,-27.58,145.54
11:30:12.379,53.26,-10.38,124.74
11:30:12.572,58.4,4.73,113.69
11:30:12.766,63.72,0.65,107.58
11:30:12.963,69.39,-4.81,113.25
11:30:13.156,72.39,-7.4,107.12
11:30:13.353,71.69,-5.2,99.42
11:30:13.546,70.49,-0.66,85.33
11:30:13.741,73.66,-0.58,80.65
11:30:13.957,71.52,-4.27,68.79
11:30:14.132,71.9,-4.09,62.38
11:30:14.327,76.72,0.54,57.51
11:30:14.524,81.77,-3.47,61.18
11:30:14.793,91.19,-5.32,73.14
11:30:14.912,89.66,-3.23,75.92
11:30:15.106,88.66,-0.91,67.8
11:30:15.351,90.68,-0.11,68.95
11:30:15.545,91.85,2.39,69.21
11:30:15.790,91.54,3.98,63.68
11:30:15.936,90.28,6.05,57.32
11:30:16.130,90.33,7.87,53.12
11:30:16.325,90.14,9.94,49.72
11:30:16.521,83.66,8.41,35.02
11:30:16.715,88.06,12.27,44.44
11:30:16.911,84.98,16.43,37.04
11:30:17.105,79.72,28.65,25.44
11:30:17.300,54.4,20.6,22.31
11:30:17.495,34.88,9.05,23.43
11:30:17.690,45.44,-3.05,28.84
11:30:17.885,73.08,-4.77,28.68
11:30:18.080,93.71,-9.06,35.24
11:30:18.275,98.68,-12.45,58.5
11:30:18.471,101.38,3.6,52.85
11:30:18.665,108.8,1.38,63.79
11:30:18.861,113.27,-2.03,73.63
11:30:19.055,105.11,-3.09,68.53
11:30:19.250,97.45,-1.41,45.38
11:30:19.446,96.8,-5.23,31.33
11:30:19.739,87.21,-7.31,8.07
11:30:19.884,72.05,-13.91,5.53
11:30:20.079,73.78,-4.4,-3.9
11:30:20.274,87.0,6.32,-1.2
11:30:20.518,92.8,8.01,-2.61
11:30:20.712,88.6,16.1,-0.05
11:30:20.859,77.51,-3.73,-20.49
11:30:21.054,48.88,-10.35,12.47
11:30:21.248,22.1,-15.83,34.51
11:30:21.444,9.11,4.96,58.0
11:30:21.640,3.83,29.2,49.33
11:30:21.884,1.69,42.6,40.51
11:30:22.029,-11.4,48.36,44.01
11:30:22.225,-34.63,49.53,49.43
11:30:22.420,-26.3,66.29,59.82
11:30:22.615,-53.19,30.27,51.85
11:30:22.809,-37.74,14.14,39.06
11:30:23.004,-21.34,22.98,21.52
11:30:23.199,-13.83,38.52,3.82
11:30:23.394,-6.0,34.59,-11.48
11:30:23.638,-8.62,30.13,-23.02
11:30:23.833,-10.38,29.06,-29.75
11:30:24.028,-19.01,25.21,-37.65
11:30:24.223,-28.94,22.86,-43.15
11:30:24.419,-30.89,20.22,-42.84
11:30:24.615,-31.5,17.7,-45.3
11:30:24.808,-34.57,9.21,-49.5
11:30:25.003,-33.96,3.94,-56.28
11:30:25.198,-37.96,0.78,-73.03
11:30:25.393,-38.87,1.25,-102.39
11:30:25.588,-35.63,-3.2,-96.97
11:30:25.783,-28.05,0.44,-108.81
11:30:25.978,-29.09,-0.93,-116.92
11:30:26.173,-30.34,-5.71,-119.27
11:30:26.368,-29.36,-9.78,-117.98
11:30:26.563,-29.62,-13.69,-114.85
11:30:26.758,-25.09,-13.63,-112.83
11:30:26.953,-22.47,-11.66,-104.98
11:30:27.197,-19.03,-10.98,-105.45
11:30:27.343,-12.31,-24.03,-113.75
11:30:27.538,20.85,-21.61,-142.81
11:30:27.733,47.59,0.43,-172.0
11:30:27.928,63.93,14.28,160.49
11:30:28.171,63.96,4.41,144.38
11:30:28.368,60.33,-11.28,135.63
11:30:28.562,62.52,-15.78,136.58
11:30:28.757,69.15,-10.01,132.26
11:30:28.952,73.58,-7.82,123.12
11:30:29.147,78.47,-7.21,120.07
11:30:29.344,80.14,-8.63,116.09
11:30:29.537,82.36,-8.73,117.19
11:30:29.732,86.81,1.69,120.69
11:30:29.927,83.52,-6.19,108.54
11:30:30.123,88.94,-12.82,115.32
11:30:30.317,83.34,-7.85,113.07
11:30:30.512,74.73,-12.85,88.7
11:30:30.707,81.26,-0.36,88.37
11:30:30.903,81.99,3.92,86.54
11:30:31.097,79.17,0.79,82.63
11:30:31.294,73.42,-1.57,79.84
11:30:31.488,73.28,-13.29,69.43
11:30:31.683,74.49,-27.54,76.74
11:30:31.878,76.97,-40.28,85.83
11:30:32.073,72.95,-45.25,106.59
11:30:32.267,73.73,-33.66,114.67
11:30:32.528,48.13,-48.29,130.29
11:30:32.707,20.86,-55.62,153.84
11:30:32.902,11.27,-59.04,164.05
11:30:33.099,4.02,-55.68,175.44
11:30:33.291,1.01,-39.27,-177.28
11:30:33.486,0.09,-29.67,-167.65
11:30:33.681,5.0,-37.76,-169.19
11:30:33.877,9.99,-40.56,-171.2
11:30:34.072,9.88,-39.13,-167.73
11:30:34.267,9.5,-40.58,-163.79
11:30:34.462,10.27,-42.0,-163.41
11:30:34.657,12.76,-39.77,-163.44
11:30:34.852,12.0,-37.6,-161.12
11:30:35.047,11.06,-36.1,-157.37
11:30:35.242,11.34,-35.79,-157.59
11:30:35.437,12.95,-37.22,-159.7
11:30:35.632,16.54,-33.9,-162.11
11:30:35.876,17.61,-30.95,-161.69
11:30:36.022,18.37,-29.05,-162.03
11:30:36.217,19.71,-26.97,-163.01
11:30:36.411,20.06,-25.82,-163.71
11:30:36.611,19.74,-25.19,-163.98
11:30:36.850,20.1,-23.41,-164.6
11:30:37.049,17.51,-22.52,-162.92
11:30:37.240,14.47,-20.91,-161.86
11:30:37.436,11.01,-18.58,-160.67
11:30:37.630,6.59,-17.56,-160.75
11:30:37.826,4.23,-16.53,-161.82
11:30:38.020,1.1,-17.55,-163.8
11:30:38.216,-0.44,-16.4,-164.95
11:30:38.459,-1.03,-13.37,-166.2
11:30:38.605,-1.25,-12.77,-167.21
11:30:38.898,-1.59,-13.29,-168.42
11:30:39.044,-2.65,-12.44,-169.57
11:30:39.190,-2.74,-13.14,-171.49
